loop.thisRepN,loop.thisTrialN,loop.thisN,loop.thisIndex,num_distr,fixation.started,fixation.stopped,target.started,target.stopped,mouse.x,mouse.y,mouse.leftButton,mouse.midButton,mouse.rightButton,mouse.time,mouse.clicked_name,mouse.started,mouse.stopped,participant,session,date,expName,psychopyVersion,frameRate,
0,0,0,0,5,11.30268129997421,None,11.30268129997421,None,-0.37109375,-0.15104166666666666,1,0,0,1.8832007000455633,target,0.005612960085272789,None,2,001,2022_Oct_01_1338,Tutorial_3,2021.1.4,59.95042098724027,
1,0,1,0,10,13.185109599959105,None,13.185109599959105,None,-0.02734375,0.12109375,1,0,0,1.5555625000270084,target,0.00861084007192403,None,2,001,2022_Oct_01_1338,Tutorial_3,2021.1.4,59.95042098724027,
2,0,2,0,5,14.758331499993801,None,14.758331499993801,None,-0.24479166666666666,0.2734375,1,0,0,2.3473739000037313,target,0.00686072011012584,None,2,001,2022_Oct_01_1338,Tutorial_3,2021.1.4,59.95042098724027,
3,0,3,0,10,17.15277749998495,None,17.15277749998495,None,-0.2552083333333333,0.4700520833333333,1,0,0,1.9837120999582112,,0.009122229996137321,None,2,001,2022_Oct_01_1338,Tutorial_3,2021.1.4,59.95042098724027,
4,0,4,0,5,19.152955599944107,None,19.152955599944107,None,-0.17838541666666666,0.12630208333333334,1,0,0,1.3845626999391243,target,0.01034931989852339,None,2,001,2022_Oct_01_1338,Tutorial_3,2021.1.4,59.95042098724027,
5,0,5,0,10,20.605757599929348,None,20.605757599929348,None,0.4791666666666667,0.125,1,0,0,1.5038148999447003,target,0.004136339877732098,None,2,001,2022_Oct_01_1338,Tutorial_3,2021.1.4,59.95042098724027,
6,0,6,0,10,22.14888859994244,None,22.14888859994244,None,-0.4205729166666667,0.2838541666666667,1,0,0,3.1474740999983624,target,0.016532629961147904,None,2,001,2022_Oct_01_1338,Tutorial_3,2021.1.4,59.95042098724027,
7,0,7,0,10,25.323416300001554,None,25.323416300001554,None,0.3854166666666667,-0.08333333333333333,1,0,0,2.7991059001069516,target,0.015962530043907464,None,2,001,2022_Oct_01_1338,Tutorial_3,2021.1.4,59.95042098724027,
8,0,8,0,10,28.16414599993732,None,28.16414599993732,None,0.0234375,0.07942708333333333,1,0,0,1.9569954000180587,target,0.013415329973213375,None,2,001,2022_Oct_01_1338,Tutorial_3,2021.1.4,59.95042098724027,
9,0,9,0,10,30.166562599944882,None,30.166562599944882,None,0.18489583333333334,-0.10807291666666667,1,0,0,2.692715200013481,target,0.014400840038433671,None,2,001,2022_Oct_01_1338,Tutorial_3,2021.1.4,59.95042098724027,
10,0,10,0,10,32.8921564000193,None,32.8921564000193,None,0.25390625,0.14973958333333334,1,0,0,1.083994899992831,target,0.01578532997518778,None,2,001,2022_Oct_01_1338,Tutorial_3,2021.1.4,59.95042098724027,
11,0,11,0,5,33.99655779998284,None,33.99655779998284,None,0.13541666666666666,0.23828125,1,0,0,2.1131176999770105,target,0.008458519936539233,None,2,001,2022_Oct_01_1338,Tutorial_3,2021.1.4,59.95042098724027,
12,0,12,0,5,36.132425599964336,None,36.132425599964336,None,-0.08333333333333333,-0.2734375,1,0,0,1.8679858000250533,target,0.009858220117166638,None,2,001,2022_Oct_01_1338,Tutorial_3,2021.1.4,59.95042098724027,
13,0,13,0,5,38.02750089997426,None,38.02750089997426,None,0.22135416666666666,0.09114583333333333,1,0,0,1.0014754999428988,target,0.005901220021769404,None,2,001,2022_Oct_01_1338,Tutorial_3,2021.1.4,59.95042098724027,
14,0,14,0,10,39.07406000001356,None,39.07406000001356,None,0.06640625,0.3854166666666667,1,0,0,1.4659676000010222,target,0.013153829844668508,None,2,001,2022_Oct_01_1338,Tutorial_3,2021.1.4,59.95042098724027,
15,0,15,0,10,40.57359299995005,None,40.57359299995005,None,-0.35546875,-0.015625,1,0,0,1.8072510999627411,target,0.013419429888017476,None,2,001,2022_Oct_01_1338,Tutorial_3,2021.1.4,59.95042098724027,
16,0,16,0,10,42.41705639997963,None,42.41705639997963,None,-0.11458333333333333,-0.23697916666666666,1,0,0,1.7057262000162154,target,0.01226762996520847,None,2,001,2022_Oct_01_1338,Tutorial_3,2021.1.4,59.95042098724027,
17,0,17,0,10,44.1709163999185,None,44.1709163999185,None,0.16015625,-0.04296875,1,0,0,2.4976362000452355,target,0.0009128300007432699,None,2,001,2022_Oct_01_1338,Tutorial_3,2021.1.4,59.95042098724027,
18,0,18,0,5,46.69901709991973,None,46.69901709991973,None,-0.3671875,0.4166666666666667,1,0,0,1.58510349993594,target,0.006285520154051483,None,2,001,2022_Oct_01_1338,Tutorial_3,2021.1.4,59.95042098724027,
19,0,19,0,10,48.32545260002371,None,48.32545260002371,None,-0.2630208333333333,0.1640625,1,0,0,3.106861500069499,target,0.0059139300137758255,None,2,001,2022_Oct_01_1338,Tutorial_3,2021.1.4,59.95042098724027,
20,0,20,0,5,51.447174999979325,None,51.447174999979325,None,-0.23697916666666666,-0.453125,1,0,0,2.0308288000524044,target,0.008824220160022378,None,2,001,2022_Oct_01_1338,Tutorial_3,2021.1.4,59.95042098724027,
21,0,21,0,10,53.52248029992916,None,53.52248029992916,None,0.4661458333333333,-0.2552083333333333,1,0,0,2.9178430000320077,target,0.010645829956047237,None,2,001,2022_Oct_01_1338,Tutorial_3,2021.1.4,59.95042098724027,
22,0,22,0,10,56.47803959995508,None,56.47803959995508,None,-0.4934895833333333,0.17317708333333334,1,0,0,1.9205482999095693,target,0.011733629857189953,None,2,001,2022_Oct_01_1338,Tutorial_3,2021.1.4,59.95042098724027,
23,0,23,0,5,58.418998199980706,None,58.418998199980706,None,0.16796875,-0.4166666666666667,1,0,0,1.5323528000153601,target,0.006056619924493134,None,2,001,2022_Oct_01_1338,Tutorial_3,2021.1.4,59.95042098724027,
24,0,24,0,5,59.98807740001939,None,59.98807740001939,None,-0.40234375,0.23828125,1,0,0,1.3396120000397786,target,0.01254482998047024,None,2,001,2022_Oct_01_1338,Tutorial_3,2021.1.4,59.95042098724027,
25,0,25,0,10,61.36980619991664,None,61.36980619991664,None,-0.2265625,0.4544270833333333,1,0,0,3.810254800016992,target,0.012882929993793368,None,2,001,2022_Oct_01_1338,Tutorial_3,2021.1.4,59.95042098724027,
26,0,26,0,5,65.22057120001409,None,65.22057120001409,None,0.4205729166666667,0.15885416666666666,1,0,0,1.3182863999390975,target,0.0027518300339579582,None,2,001,2022_Oct_01_1338,Tutorial_3,2021.1.4,59.95042098724027,
27,0,27,0,10,66.60670559993014,None,66.60670559993014,None,-0.07552083333333333,0.3984375,1,0,0,2.5976113999495283,target,0.009541740058921278,None,2,001,2022_Oct_01_1338,Tutorial_3,2021.1.4,59.95042098724027,
28,0,28,0,10,69.23337069991976,None,69.23337069991976,None,-0.171875,-0.3997395833333333,1,0,0,2.1953219999559224,target,0.0164476300124079,None,2,001,2022_Oct_01_1338,Tutorial_3,2021.1.4,59.95042098724027,
29,0,29,0,5,71.4451411999762,None,71.4451411999762,None,-0.4895833333333333,-0.3489583333333333,1,0,0,1.6459212000481784,target,0.008128020097501576,None,2,001,2022_Oct_01_1338,Tutorial_3,2021.1.4,59.95042098724027,
30,0,30,0,5,73.12604919995647,None,73.12604919995647,None,-0.09114583333333333,0.2760416666666667,1,0,0,1.4722646999871358,target,0.014730229857377708,None,2,001,2022_Oct_01_1338,Tutorial_3,2021.1.4,59.95042098724027,
31,0,31,0,10,74.66069629997946,None,74.66069629997946,None,-0.25390625,0.13671875,1,0,0,1.1624560999916866,target,0.011071440065279603,None,2,001,2022_Oct_01_1338,Tutorial_3,2021.1.4,59.95042098724027,
32,0,32,0,10,75.85653859993909,None,75.85653859993909,None,-0.10807291666666667,-0.08463541666666667,1,0,0,2.0928032000083476,target,0.014435730059631169,None,2,001,2022_Oct_01_1338,Tutorial_3,2021.1.4,59.95042098724027,
33,0,33,0,10,77.9806307000108,None,77.9806307000108,None,0.020833333333333332,-0.3346354166666667,1,0,0,2.8168880000011995,target,0.00124201993457973,None,2,001,2022_Oct_01_1338,Tutorial_3,2021.1.4,59.95042098724027,
34,0,34,0,5,80.81858209997881,None,80.81858209997881,None,-0.09375,-0.018229166666666668,1,0,0,1.276913500041701,target,0.008218320086598396,None,2,001,2022_Oct_01_1338,Tutorial_3,2021.1.4,59.95042098724027,
35,0,35,0,10,82.1486912999535,None,82.1486912999535,None,0.016927083333333332,-0.4322916666666667,1,0,0,3.760342900059186,target,0.0007472300203517079,None,2,001,2022_Oct_01_1338,Tutorial_3,2021.1.4,59.95042098724027,
36,0,36,0,5,85.92622629995458,None,85.92622629995458,None,-0.16015625,-0.4778645833333333,1,0,0,2.023030500044115,target,0.0071460200706496835,None,2,001,2022_Oct_01_1338,Tutorial_3,2021.1.4,59.95042098724027,
37,0,37,0,10,87.99051589996088,None,87.99051589996088,None,0.3697916666666667,-0.044270833333333336,1,0,0,2.2274420000612736,target,0.014702629996463656,None,2,001,2022_Oct_01_1338,Tutorial_3,2021.1.4,59.95042098724027,
38,0,38,0,5,90.29586329997983,None,90.29586329997983,None,0.3411458333333333,-0.3424479166666667,1,0,0,1.259648900013417,target,0.016449459944851696,None,2,001,2022_Oct_01_1338,Tutorial_3,2021.1.4,59.95042098724027,
39,0,39,0,5,91.62153369991574,None,91.62153369991574,None,0.3958333333333333,0.24609375,1,0,0,2.4847371999640018,target,0.014618349960073829,None,2,001,2022_Oct_01_1338,Tutorial_3,2021.1.4,59.95042098724027,
40,0,40,0,5,94.14686669991352,None,94.14686669991352,None,0.04296875,0.34375,1,0,0,1.1276500999229029,target,0.003547120140865445,None,2,001,2022_Oct_01_1338,Tutorial_3,2021.1.4,59.95042098724027,
41,0,41,0,10,95.30943979998119,None,95.30943979998119,None,0.24348958333333334,0.2682291666666667,1,0,0,1.7201029000570998,target,0.010014830040745437,None,2,001,2022_Oct_01_1338,Tutorial_3,2021.1.4,59.95042098724027,
42,0,42,0,5,97.04813799995463,None,97.04813799995463,None,-0.15104166666666666,0.3932291666666667,1,0,0,1.4576681000180542,target,0.007206720067188144,None,2,001,2022_Oct_01_1338,Tutorial_3,2021.1.4,59.95042098724027,
43,0,43,0,5,98.54220959998202,None,98.54220959998202,None,0.23828125,0.18880208333333334,1,0,0,1.0350977999623865,target,0.013648629887029529,None,2,001,2022_Oct_01_1338,Tutorial_3,2021.1.4,59.95042098724027,
44,0,44,0,5,99.6183607999701,None,99.6183607999701,None,-0.2825520833333333,-0.3671875,1,0,0,2.9868934999685735,target,0.003656329936347902,None,2,001,2022_Oct_01_1338,Tutorial_3,2021.1.4,59.95042098724027,
45,0,45,0,10,102.67130159994122,None,102.67130159994122,None,-0.01171875,0.4778645833333333,1,0,0,3.760367100010626,target,0.007244339911267161,None,2,001,2022_Oct_01_1338,Tutorial_3,2021.1.4,59.95042098724027,
46,0,46,0,10,106.48838230001274,None,106.48838230001274,None,0.09114583333333333,0.4557291666666667,1,0,0,3.1174863999476656,target,0.0005179198924452066,None,2,001,2022_Oct_01_1338,Tutorial_3,2021.1.4,59.95042098724027,
47,0,47,0,5,109.59442749992013,None,109.59442749992013,None,-0.028645833333333332,-0.08203125,1,0,0,1.6269616999197751,target,0.012068719952367246,None,2,001,2022_Oct_01_1338,Tutorial_3,2021.1.4,59.95042098724027,
48,0,48,0,10,111.26689999992959,None,111.26689999992959,None,0.4583333333333333,-0.3528645833333333,1,0,0,4.084421499981545,target,0.009812430012971163,None,2,001,2022_Oct_01_1338,Tutorial_3,2021.1.4,59.95042098724027,
49,0,49,0,5,115.36459229991306,None,115.36459229991306,None,0.2708333333333333,0.029947916666666668,1,0,0,1.1241033000405878,target,0.012169520137831569,None,2,001,2022_Oct_01_1338,Tutorial_3,2021.1.4,59.95042098724027,
50,0,50,0,10,116.55148439994082,None,116.55148439994082,None,0.4466145833333333,-0.0390625,1,0,0,2.2553982000099495,target,0.010939040104858577,None,2,001,2022_Oct_01_1338,Tutorial_3,2021.1.4,59.95042098724027,
51,0,51,0,10,118.83595410000999,None,118.83595410000999,None,-0.4895833333333333,0.4453125,1,0,0,2.399181699962355,target,0.0024201199412345886,None,2,001,2022_Oct_01_1338,Tutorial_3,2021.1.4,59.95042098724027,
52,0,52,0,5,121.24922090000473,None,121.24922090000473,None,-0.07942708333333333,0.2565104166666667,1,0,0,1.6273780999472365,target,0.01218951994087547,None,2,001,2022_Oct_01_1338,Tutorial_3,2021.1.4,59.95042098724027,
53,0,53,0,10,122.93192599993199,None,122.93192599993199,None,-0.2903645833333333,-0.25390625,1,0,0,2.5614760000025854,target,0.002179429982788861,None,2,001,2022_Oct_01_1338,Tutorial_3,2021.1.4,59.95042098724027,
54,0,54,0,5,125.52220559993293,None,125.52220559993293,None,0.2942708333333333,0.3294270833333333,1,0,0,2.2486674999818206,target,0.009338920004665852,None,2,001,2022_Oct_01_1338,Tutorial_3,2021.1.4,59.95042098724027,
55,0,55,0,10,127.80744909995701,None,127.80744909995701,None,0.15494791666666666,-0.3723958333333333,1,0,0,1.8681140000699088,target,0.00533853005617857,None,2,001,2022_Oct_01_1338,Tutorial_3,2021.1.4,59.95042098724027,
56,0,56,0,5,129.69195230002515,None,129.69195230002515,None,0.2903645833333333,0.1015625,1,0,0,1.5039034000365064,target,0.009610720095224679,None,2,001,2022_Oct_01_1338,Tutorial_3,2021.1.4,59.95042098724027,
57,0,57,0,5,131.22666379995644,None,131.22666379995644,None,0.13541666666666666,0.32421875,1,0,0,1.167812900035642,target,0.003709119977429509,None,2,001,2022_Oct_01_1338,Tutorial_3,2021.1.4,59.95042098724027,
58,0,58,0,5,132.41819519991986,None,132.41819519991986,None,-0.21223958333333334,0.42578125,1,0,0,1.2993663999950513,target,0.007161120185628533,None,2,001,2022_Oct_01_1338,Tutorial_3,2021.1.4,59.95042098724027,
59,0,59,0,5,133.75821939995512,None,133.75821939995512,None,-0.057291666666666664,0.0625,1,0,0,1.092986200004816,target,0.009998530033044517,None,2,001,2022_Oct_01_1338,Tutorial_3,2021.1.4,59.95042098724027,
60,0,60,0,10,134.9228958999738,None,134.9228958999738,None,0.005208333333333333,0.20963541666666666,1,0,0,1.2287095999345183,target,0.015397949959151447,None,2,001,2022_Oct_01_1338,Tutorial_3,2021.1.4,59.95042098724027,
61,0,61,0,10,136.19404329999816,None,136.19404329999816,None,0.4466145833333333,-0.03515625,1,0,0,1.853685799986124,target,0.007890929817222059,None,2,001,2022_Oct_01_1338,Tutorial_3,2021.1.4,59.95042098724027,
62,0,62,0,10,138.07955839997157,None,138.07955839997157,None,0.171875,0.041666666666666664,1,0,0,3.287780400016345,target,0.0013010199181735516,None,2,001,2022_Oct_01_1338,Tutorial_3,2021.1.4,59.95042098724027,
63,0,63,0,5,141.3846755999839,None,141.3846755999839,None,-0.14713541666666666,-0.3346354166666667,1,0,0,1.8857871000654995,target,0.008664020104333758,None,2,001,2022_Oct_01_1338,Tutorial_3,2021.1.4,59.95042098724027,
64,0,64,0,10,143.31865849997848,None,143.31865849997848,None,-0.40625,-0.14713541666666666,1,0,0,2.0023188999621198,target,0.007264830055646598,None,2,001,2022_Oct_01_1338,Tutorial_3,2021.1.4,59.95042098724027,
65,0,65,0,5,145.34766329999547,None,145.34766329999547,None,0.048177083333333336,0.3294270833333333,1,0,0,1.5417529999976978,target,0.010160020086914301,None,2,001,2022_Oct_01_1338,Tutorial_3,2021.1.4,59.95042098724027,
66,0,66,0,10,146.9233111999929,None,146.9233111999929,None,-0.296875,-0.4544270833333333,1,0,0,1.806021000025794,target,0.012170830043032765,None,2,001,2022_Oct_01_1338,Tutorial_3,2021.1.4,59.95042098724027,
67,0,67,0,10,148.76673279993702,None,148.76673279993702,None,-0.045572916666666664,-0.07682291666666667,1,0,0,2.944541900069453,target,0.014413429889827967,None,2,001,2022_Oct_01_1338,Tutorial_3,2021.1.4,59.95042098724027,
68,0,68,0,5,151.7341834999388,None,151.7341834999388,None,0.37109375,-0.044270833333333336,1,0,0,1.919956999947317,target,0.0011182199232280254,None,2,001,2022_Oct_01_1338,Tutorial_3,2021.1.4,59.95042098724027,
69,0,69,0,10,153.71494279999752,None,153.71494279999752,None,0.4544270833333333,0.2799479166666667,1,0,0,2.048412200063467,target,0.011817940045148134,None,2,001,2022_Oct_01_1338,Tutorial_3,2021.1.4,59.95042098724027,
70,0,70,0,5,155.77893559995573,None,155.77893559995573,None,-0.4010416666666667,0.06770833333333333,1,0,0,1.43601890001446,target,0.009424720075912774,None,2,001,2022_Oct_01_1338,Tutorial_3,2021.1.4,59.95042098724027,
71,0,71,0,10,157.27612009993754,None,157.27612009993754,None,-0.010416666666666666,-0.37890625,1,0,0,1.9918974000029266,target,0.01207354012876749,None,2,001,2022_Oct_01_1338,Tutorial_3,2021.1.4,59.95042098724027,
72,0,72,0,10,159.30289900000207,None,159.30289900000207,None,0.42578125,0.3815104166666667,1,0,0,2.8909802000271156,target,0.01393343007657677,None,2,001,2022_Oct_01_1338,Tutorial_3,2021.1.4,59.95042098724027,
73,0,73,0,5,162.21353800001089,None,162.21353800001089,None,-0.3984375,-0.2109375,1,0,0,2.1309725999599323,target,0.007725819945335388,None,2,001,2022_Oct_01_1338,Tutorial_3,2021.1.4,59.95042098724027,
74,0,74,0,10,164.4017117000185,None,164.4017117000185,None,-0.0078125,-0.25390625,1,0,0,1.6018624000716954,target,0.014786840067245066,None,2,001,2022_Oct_01_1338,Tutorial_3,2021.1.4,59.95042098724027,
75,0,75,0,5,166.0172109999694,None,166.0172109999694,None,-0.024739583333333332,0.0234375,1,0,0,1.5466958000324667,target,0.012156520155258477,None,2,001,2022_Oct_01_1338,Tutorial_3,2021.1.4,59.95042098724027,
76,0,76,0,5,167.61684419994708,None,167.61684419994708,None,0.4088541666666667,-0.0026041666666666665,1,0,0,1.8254462000913918,target,0.01295323995873332,None,2,001,2022_Oct_01_1338,Tutorial_3,2021.1.4,59.95042098724027,
77,0,77,0,5,169.48573289997876,None,169.48573289997876,None,0.10416666666666667,0.3229166666666667,1,0,0,2.173967399983667,target,0.004967329907231033,None,2,001,2022_Oct_01_1338,Tutorial_3,2021.1.4,59.95042098724027,
78,0,78,0,5,171.6827164000133,None,171.6827164000133,None,-0.041666666666666664,-0.24479166666666666,1,0,0,1.3106338999932632,target,0.009691120125353336,None,2,001,2022_Oct_01_1338,Tutorial_3,2021.1.4,59.95042098724027,
79,0,79,0,5,173.03378179995343,None,173.03378179995343,None,-0.109375,-0.2994791666666667,1,0,0,1.33010809996631,target,0.00899172993376851,None,2,001,2022_Oct_01_1338,Tutorial_3,2021.1.4,59.95042098724027,
80,0,80,0,5,174.3960721999174,None,174.3960721999174,None,-0.12369791666666667,-0.45703125,1,0,0,1.5301720999414101,target,0.0004416201263666153,None,2,001,2022_Oct_01_1338,Tutorial_3,2021.1.4,59.95042098724027,
81,0,81,0,5,175.952322899946,None,175.952322899946,None,-0.3411458333333333,-0.0625,1,0,0,2.326458299998194,target,0.004882919951342046,None,2,001,2022_Oct_01_1338,Tutorial_3,2021.1.4,59.95042098724027,
82,0,82,0,5,178.31710149999708,None,178.31710149999708,None,0.4140625,-0.38671875,1,0,0,1.93045310000889,target,0.01336402993183583,None,2,001,2022_Oct_01_1338,Tutorial_3,2021.1.4,59.95042098724027,
83,0,83,0,10,180.29636559996288,None,180.29636559996288,None,0.4596354166666667,0.18880208333333334,1,0,0,1.9394175000488758,target,0.0049483299953863025,None,2,001,2022_Oct_01_1338,Tutorial_3,2021.1.4,59.95042098724027,
84,0,84,0,10,182.2709157000063,None,182.2709157000063,None,0.16276041666666666,0.022135416666666668,1,0,0,1.3519615000113845,target,0.014065930037759244,None,2,001,2022_Oct_01_1338,Tutorial_3,2021.1.4,59.95042098724027,
85,0,85,0,10,183.66506929998286,None,183.66506929998286,None,0.3645833333333333,0.08723958333333333,1,0,0,1.3428350000176579,target,0.009293230017647147,None,2,001,2022_Oct_01_1338,Tutorial_3,2021.1.4,59.95042098724027,
86,0,86,0,10,185.06978429993615,None,185.06978429993615,None,0.15625,0.09114583333333333,1,0,0,1.3341895999619737,target,0.0035364400828257203,None,2,001,2022_Oct_01_1338,Tutorial_3,2021.1.4,59.95042098724027,
87,0,87,0,10,186.44082219991833,None,186.44082219991833,None,0.2682291666666667,-0.06510416666666667,1,0,0,1.2316868000198156,target,0.013095629983581603,None,2,001,2022_Oct_01_1338,Tutorial_3,2021.1.4,59.95042098724027,
88,0,88,0,10,187.70468129997607,None,187.70468129997607,None,-0.10807291666666667,-0.43359375,1,0,0,2.5126391999656335,target,0.000146319973282516,None,2,001,2022_Oct_01_1338,Tutorial_3,2021.1.4,59.95042098724027,
89,0,89,0,5,190.2338662999682,None,190.2338662999682,None,0.3346354166666667,0.2565104166666667,1,0,0,2.0653404999757186,target,0.009528320049867034,None,2,001,2022_Oct_01_1338,Tutorial_3,2021.1.4,59.95042098724027,
90,0,90,0,10,192.3472642999841,None,192.3472642999841,None,0.078125,0.02734375,1,0,0,2.8272751999320462,target,0.008916229824535549,None,2,001,2022_Oct_01_1338,Tutorial_3,2021.1.4,59.95042098724027,
91,0,91,0,10,195.2097493999172,None,195.2097493999172,None,0.10546875,-0.4674479166666667,1,0,0,1.7597420000238344,target,0.011914329836145043,None,2,001,2022_Oct_01_1338,Tutorial_3,2021.1.4,59.95042098724027,
92,0,92,0,5,196.9929236000171,None,196.9929236000171,None,0.12630208333333334,-0.2786458333333333,1,0,0,1.3250144000630826,target,0.0022663200506940484,None,2,001,2022_Oct_01_1338,Tutorial_3,2021.1.4,59.95042098724027,
93,0,93,0,10,198.37047570000868,None,198.37047570000868,None,-0.4427083333333333,0.3294270833333333,1,0,0,2.473237600061111,target,0.0038704300532117486,None,2,001,2022_Oct_01_1338,Tutorial_3,2021.1.4,59.95042098724027,
94,0,94,0,10,200.88637109997217,None,200.88637109997217,None,-0.4388020833333333,-0.484375,1,0,0,2.611795899923891,target,0.007666029967367649,None,2,001,2022_Oct_01_1338,Tutorial_3,2021.1.4,59.95042098724027,
95,0,95,0,5,203.52111019997392,None,203.52111019997392,None,-0.3580729166666667,-0.2747395833333333,1,0,0,1.494958300027065,target,0.003989520133472979,None,2,001,2022_Oct_01_1338,Tutorial_3,2021.1.4,59.95042098724027,
96,0,96,0,10,205.06037279998418,None,205.06037279998418,None,0.08072916666666667,0.07161458333333333,1,0,0,2.2245055999374017,target,0.00750692980363965,None,2,001,2022_Oct_01_1338,Tutorial_3,2021.1.4,59.95042098724027,
97,0,97,0,10,207.3166721999878,None,207.3166721999878,None,-0.3502604166666667,0.3203125,1,0,0,2.018376799998805,target,0.0005854199407622218,None,2,001,2022_Oct_01_1338,Tutorial_3,2021.1.4,59.95042098724027,
98,0,98,0,10,209.3811868999619,None,209.3811868999619,None,0.045572916666666664,0.07421875,1,0,0,2.157084400067106,target,8.811999578028917e-05,None,2,001,2022_Oct_01_1338,Tutorial_3,2021.1.4,59.95042098724027,
99,0,99,0,10,211.56640469993,None,211.56640469993,None,0.0,-0.08072916666666667,1,0,0,2.542080800049007,target,0.010476829949766397,None,2,001,2022_Oct_01_1338,Tutorial_3,2021.1.4,59.95042098724027,
100,0,100,0,5,214.1343182999408,None,214.1343182999408,None,0.30859375,-0.4856770833333333,1,0,0,2.561999100027606,target,0.011037620133720338,None,2,001,2022_Oct_01_1338,Tutorial_3,2021.1.4,59.95042098724027,
101,0,101,0,10,216.75199279992376,None,216.75199279992376,None,-0.4427083333333333,0.3763020833333333,1,0,0,1.7973418000619859,target,0.00461794005241245,None,2,001,2022_Oct_01_1338,Tutorial_3,2021.1.4,59.95042098724027,
102,0,102,0,10,218.58226059994195,None,218.58226059994195,None,0.01171875,-0.33203125,1,0,0,3.4056191999698058,target,5.941989365965128e-05,None,2,001,2022_Oct_01_1338,Tutorial_3,2021.1.4,59.95042098724027,
103,0,103,0,5,222.0054404999828,None,222.0054404999828,None,-0.22916666666666666,-0.07682291666666667,1,0,0,1.6927676000632346,target,0.00800592009909451,None,2,001,2022_Oct_01_1338,Tutorial_3,2021.1.4,59.95042098724027,
104,0,104,0,5,223.73342009994667,None,223.73342009994667,None,0.30859375,-0.11328125,1,0,0,1.1869675000198185,target,0.015572530101053417,None,2,001,2022_Oct_01_1338,Tutorial_3,2021.1.4,59.95042098724027,
105,0,105,0,5,224.96916999993846,None,224.96916999993846,None,-0.14583333333333334,-0.2955729166666667,1,0,0,1.451855399995111,target,0.0006134300492703915,None,2,001,2022_Oct_01_1338,Tutorial_3,2021.1.4,59.95042098724027,
106,0,106,0,10,226.5017046999419,None,226.5017046999419,None,-0.041666666666666664,0.06901041666666667,1,0,0,1.3814333999762312,target,0.006834949948824942,None,2,001,2022_Oct_01_1338,Tutorial_3,2021.1.4,59.95042098724027,
107,0,107,0,10,227.91290509991813,None,227.91290509991813,None,-0.265625,0.2669270833333333,1,0,0,1.3908016999484971,target,0.0011565200984477997,None,2,001,2022_Oct_01_1338,Tutorial_3,2021.1.4,59.95042098724027,
108,0,108,0,10,229.35398369992618,None,229.35398369992618,None,-0.3372395833333333,-0.20963541666666666,1,0,0,2.0470397999743,target,0.014408929855562747,None,2,001,2022_Oct_01_1338,Tutorial_3,2021.1.4,59.95042098724027,
109,0,109,0,5,231.4032836999977,None,231.4032836999977,None,0.17838541666666666,0.3528645833333333,1,0,0,2.058956600027159,target,0.010307020042091608,None,2,001,2022_Oct_01_1338,Tutorial_3,2021.1.4,59.95042098724027,
110,0,110,0,5,233.49397259997204,None,233.49397259997204,None,0.3997395833333333,-0.21744791666666666,1,0,0,1.971735700033605,target,0.003552919952198863,None,2,001,2022_Oct_01_1338,Tutorial_3,2021.1.4,59.95042098724027,
111,0,111,0,10,235.50318020000122,None,235.50318020000122,None,0.48046875,-0.140625,1,0,0,1.128258900018409,target,0.01610202994197607,None,2,001,2022_Oct_01_1338,Tutorial_3,2021.1.4,59.95042098724027,
112,0,112,0,10,236.66394829994533,None,236.66394829994533,None,-0.4869791666666667,0.4505208333333333,1,0,0,2.6315884001087397,target,0.0008526201127097011,None,2,001,2022_Oct_01_1338,Tutorial_3,2021.1.4,59.95042098724027,
113,0,113,0,5,239.3108043000102,None,239.3108043000102,None,-0.09895833333333333,0.057291666666666664,1,0,0,1.4436608999967575,target,0.010760520119220018,None,2,001,2022_Oct_01_1338,Tutorial_3,2021.1.4,59.95042098724027,
114,0,114,0,5,240.79583009995986,None,240.79583009995986,None,-0.2421875,0.07421875,1,0,0,1.8726437999866903,target,0.009535529999993742,None,2,001,2022_Oct_01_1338,Tutorial_3,2021.1.4,59.95042098724027,
115,0,115,0,5,242.69108169991523,None,242.69108169991523,None,-0.07942708333333333,-0.13020833333333334,1,0,0,1.7308351000538096,target,0.00895862013567239,None,2,001,2022_Oct_01_1338,Tutorial_3,2021.1.4,59.95042098724027,
116,0,116,0,10,244.47405600000639,None,244.47405600000639,None,0.24869791666666666,0.3346354166666667,1,0,0,1.8161264000227675,target,0.005925329867750406,None,2,001,2022_Oct_01_1338,Tutorial_3,2021.1.4,59.95042098724027,
117,0,117,0,10,246.3418614999391,None,246.3418614999391,None,0.21354166666666666,0.048177083333333336,1,0,0,0.943500200053677,target,0.01093854010105133,None,2,001,2022_Oct_01_1338,Tutorial_3,2021.1.4,59.95042098724027,
118,0,118,0,5,247.30447309999727,None,247.30447309999727,None,-0.3736979166666667,-0.4479166666666667,1,0,0,2.0293104000156745,target,0.007367519894614816,None,2,001,2022_Oct_01_1338,Tutorial_3,2021.1.4,59.95042098724027,
119,0,119,0,5,249.35995029995684,None,249.35995029995684,None,0.3424479166666667,0.23567708333333334,1,0,0,2.070559100015089,target,0.005723019945435226,None,2,001,2022_Oct_01_1338,Tutorial_3,2021.1.4,59.95042098724027,
120,0,120,0,10,251.48267659998965,None,251.48267659998965,None,-0.057291666666666664,-0.4713541666666667,1,0,0,1.7090258999960497,target,0.003014929825440049,None,2,001,2022_Oct_01_1338,Tutorial_3,2021.1.4,59.95042098724027,
121,0,121,0,5,253.2185010999674,None,253.2185010999674,None,-0.022135416666666668,-0.3268229166666667,1,0,0,1.5884978999383748,target,0.016444030101411045,None,2,001,2022_Oct_01_1338,Tutorial_3,2021.1.4,59.95042098724027,
122,0,122,0,5,254.83368229994085,None,254.83368229994085,None,-0.24479166666666666,-0.16536458333333334,1,0,0,1.224981600069441,target,0.004809519974514842,None,2,001,2022_Oct_01_1338,Tutorial_3,2021.1.4,59.95042098724027,
123,0,123,0,5,256.08416229998693,None,256.08416229998693,None,0.4348958333333333,0.4361979166666667,1,0,0,2.1781477999174967,target,0.0062645198777318,None,2,001,2022_Oct_01_1338,Tutorial_3,2021.1.4,59.95042098724027,
124,0,124,0,10,258.30722259997856,None,258.30722259997856,None,-0.4309895833333333,0.10677083333333333,1,0,0,2.759653800050728,target,0.014677430037409067,None,2,001,2022_Oct_01_1338,Tutorial_3,2021.1.4,59.95042098724027,
125,0,125,0,5,261.08174649998546,None,261.08174649998546,None,0.10807291666666667,0.0546875,1,0,0,2.007668499951251,target,0.00812732009217143,None,2,001,2022_Oct_01_1338,Tutorial_3,2021.1.4,59.95042098724027,
126,0,126,0,5,263.12113959994167,None,263.12113959994167,None,-0.05078125,0.17447916666666666,1,0,0,1.3798391999443993,target,0.0015356199583038688,None,2,001,2022_Oct_01_1338,Tutorial_3,2021.1.4,59.95042098724027,
127,0,127,0,5,264.53034219995607,None,264.53034219995607,None,-0.453125,-0.14583333333333334,1,0,0,2.0703407999826595,target,0.0035750201204791665,None,2,001,2022_Oct_01_1338,Tutorial_3,2021.1.4,59.95042098724027,
128,0,128,0,5,266.62725199991837,None,266.62725199991837,None,0.059895833333333336,0.024739583333333332,1,0,0,2.138810000033118,target,0.006981219979934394,None,2,001,2022_Oct_01_1338,Tutorial_3,2021.1.4,59.95042098724027,
129,0,129,0,10,268.823186900001,None,268.823186900001,None,0.203125,0.06901041666666667,1,0,0,1.4665251000551507,target,0.013555640005506575,None,2,001,2022_Oct_01_1338,Tutorial_3,2021.1.4,59.95042098724027,
130,0,130,0,10,270.35003670002334,None,270.35003670002334,None,0.11197916666666667,0.21614583333333334,1,0,0,1.3309296000516042,target,0.006255239946767688,None,2,001,2022_Oct_01_1338,Tutorial_3,2021.1.4,59.95042098724027,
131,0,131,0,5,271.70127760001924,None,271.70127760001924,None,0.4856770833333333,-0.061197916666666664,1,0,0,1.4232300000730902,target,0.0059743201127275825,None,2,001,2022_Oct_01_1338,Tutorial_3,2021.1.4,59.95042098724027,
132,0,132,0,10,273.1717512999894,None,273.1717512999894,None,0.06901041666666667,0.07552083333333333,1,0,0,1.6150505000259727,target,0.008468230022117496,None,2,001,2022_Oct_01_1338,Tutorial_3,2021.1.4,59.95042098724027,
133,0,133,0,10,274.85274320002645,None,274.85274320002645,None,0.13020833333333334,-0.18489583333333334,1,0,0,1.756280600093305,target,0.0076614400604739785,None,2,001,2022_Oct_01_1338,Tutorial_3,2021.1.4,59.95042098724027,
134,0,134,0,10,276.6734547999222,None,276.6734547999222,None,-0.2903645833333333,-0.08463541666666667,1,0,0,1.2406307000201195,target,0.004926539957523346,None,2,001,2022_Oct_01_1338,Tutorial_3,2021.1.4,59.95042098724027,
135,0,135,0,10,277.94865199993365,None,277.94865199993365,None,0.3229166666666667,-0.2421875,1,0,0,1.9747501000529155,target,0.007932929904200137,None,2,001,2022_Oct_01_1338,Tutorial_3,2021.1.4,59.95042098724027,
136,0,136,0,10,279.9665717999451,None,279.9665717999451,None,0.09765625,0.11588541666666667,1,0,0,2.3899053999921307,target,0.003572929883375764,None,2,001,2022_Oct_01_1338,Tutorial_3,2021.1.4,59.95042098724027,
137,0,137,0,5,282.3819037999492,None,282.3819037999492,None,-0.24348958333333334,-0.052083333333333336,1,0,0,1.4491677000187337,target,0.011251520132645965,None,2,001,2022_Oct_01_1338,Tutorial_3,2021.1.4,59.95042098724027,
138,0,138,0,5,283.8624620999908,None,283.8624620999908,None,0.24088541666666666,0.453125,1,0,0,1.8749735999153927,target,0.0074491300620138645,None,2,001,2022_Oct_01_1338,Tutorial_3,2021.1.4,59.95042098724027,
139,0,139,0,10,285.8017859000247,None,285.8017859000247,None,0.16276041666666666,0.24088541666666666,1,0,0,3.262885499978438,target,0.007960239890962839,None,2,001,2022_Oct_01_1338,Tutorial_3,2021.1.4,59.95042098724027,
140,0,140,0,10,289.0985505999997,None,289.0985505999997,None,0.3828125,-0.1953125,1,0,0,3.5177192999981344,target,0.015389429870992899,None,2,001,2022_Oct_01_1338,Tutorial_3,2021.1.4,59.95042098724027,
141,0,141,0,5,292.63442549994215,None,292.63442549994215,None,0.09635416666666667,-0.375,1,0,0,2.6618237999500707,target,0.007530119968578219,None,2,001,2022_Oct_01_1338,Tutorial_3,2021.1.4,59.95042098724027,
142,0,142,0,5,295.3342859999975,None,295.3342859999975,None,-0.14322916666666666,0.4661458333333333,1,0,0,2.682470400002785,target,0.007536429795436561,None,2,001,2022_Oct_01_1338,Tutorial_3,2021.1.4,59.95042098724027,
143,0,143,0,10,298.0620286000194,None,298.0620286000194,None,-0.3072916666666667,-0.022135416666666668,1,0,0,1.6729431999847293,target,0.01128103001974523,None,2,001,2022_Oct_01_1338,Tutorial_3,2021.1.4,59.95042098724027,
144,0,144,0,5,299.7506506999489,None,299.7506506999489,None,0.016927083333333332,0.4791666666666667,1,0,0,1.843828700017184,target,0.00920752005185932,None,2,001,2022_Oct_01_1338,Tutorial_3,2021.1.4,59.95042098724027,
145,0,145,0,5,301.64332389994524,None,301.64332389994524,None,-0.16666666666666666,0.2643229166666667,1,0,0,1.4459350999677554,target,0.0024318299256265163,None,2,001,2022_Oct_01_1338,Tutorial_3,2021.1.4,59.95042098724027,
146,0,146,0,10,303.14368069998454,None,303.14368069998454,None,-0.25390625,-0.2526041666666667,1,0,0,2.233165299985558,target,0.0018770300084725022,None,2,001,2022_Oct_01_1338,Tutorial_3,2021.1.4,59.95042098724027,
147,0,147,0,5,305.3922164000105,None,305.3922164000105,None,-0.26171875,-0.07421875,1,0,0,1.19660979998298,target,0.009255320066586137,None,2,001,2022_Oct_01_1338,Tutorial_3,2021.1.4,59.95042098724027,
148,0,148,0,5,306.6145173999248,None,306.6145173999248,None,0.4127604166666667,-0.21484375,1,0,0,2.4750086000422016,target,0.006138519966043532,None,2,001,2022_Oct_01_1338,Tutorial_3,2021.1.4,59.95042098724027,
149,0,149,0,5,309.11383809999097,None,309.11383809999097,None,0.3190104166666667,-0.3736979166666667,1,0,0,1.6543391000013798,target,0.008498620009049773,None,2,001,2022_Oct_01_1338,Tutorial_3,2021.1.4,59.95042098724027,
150,0,150,0,10,310.84723229997326,None,310.84723229997326,None,0.25390625,0.3125,1,0,0,2.0720100000035018,target,0.004567740019410849,None,2,001,2022_Oct_01_1338,Tutorial_3,2021.1.4,59.95042098724027,
151,0,151,0,10,312.9652460999787,None,312.9652460999787,None,0.14322916666666666,-0.4427083333333333,1,0,0,3.52989120001439,target,0.00961213989648968,None,2,001,2022_Oct_01_1338,Tutorial_3,2021.1.4,59.95042098724027,
152,0,152,0,5,316.5100560999708,None,316.5100560999708,None,0.08854166666666667,-0.11458333333333333,1,0,0,1.2731158999959007,target,0.010505320155061781,None,2,001,2022_Oct_01_1338,Tutorial_3,2021.1.4,59.95042098724027,
153,0,153,0,5,317.8123410999542,None,317.8123410999542,None,-0.12760416666666666,0.029947916666666668,1,0,0,1.4285065999720246,target,0.005257820128463209,None,2,001,2022_Oct_01_1338,Tutorial_3,2021.1.4,59.95042098724027,
154,0,154,0,5,319.2697115999181,None,319.2697115999181,None,-0.1328125,-0.30859375,1,0,0,2.9709491999819875,target,0.002336920006200671,None,2,001,2022_Oct_01_1338,Tutorial_3,2021.1.4,59.95042098724027,
155,0,155,0,5,322.27942739997525,None,322.27942739997525,None,-0.14453125,-0.006510416666666667,1,0,0,2.0699799000285566,target,0.010630129836499691,None,2,001,2022_Oct_01_1338,Tutorial_3,2021.1.4,59.95042098724027,
156,0,156,0,10,324.3943056999706,None,324.3943056999706,None,0.12109375,0.21223958333333334,1,0,0,2.8311789999715984,target,0.011009530047886074,None,2,001,2022_Oct_01_1338,Tutorial_3,2021.1.4,59.95042098724027,
157,0,157,0,10,327.2622050999198,None,327.2622050999198,None,-0.2916666666666667,-0.453125,1,0,0,1.6326701999641955,target,0.012320329900830984,None,2,001,2022_Oct_01_1338,Tutorial_3,2021.1.4,59.95042098724027,
158,0,158,0,10,328.93395560001954,None,328.93395560001954,None,0.4192708333333333,-0.17317708333333334,1,0,0,1.83046359999571,target,0.010978529811836779,None,2,001,2022_Oct_01_1338,Tutorial_3,2021.1.4,59.95042098724027,
159,0,159,0,5,330.7840265999548,None,330.7840265999548,None,0.12239583333333333,-0.4518229166666667,1,0,0,1.8621342999394983,target,0.005350320017896593,None,2,001,2022_Oct_01_1338,Tutorial_3,2021.1.4,59.95042098724027,
160,0,160,0,10,332.69183869997505,None,332.69183869997505,None,-0.4309895833333333,-0.3033854166666667,1,0,0,2.713785400032066,target,0.012191330082714558,None,2,001,2022_Oct_01_1338,Tutorial_3,2021.1.4,59.95042098724027,
161,0,161,0,10,335.43510330002755,None,335.43510330002755,None,0.1484375,-0.3098958333333333,1,0,0,1.8747709998860955,target,0.000861119944602251,None,2,001,2022_Oct_01_1338,Tutorial_3,2021.1.4,59.95042098724027,
162,0,162,0,5,337.3305698999902,None,337.3305698999902,None,0.3255208333333333,0.35546875,1,0,0,2.112543800030835,target,0.006574720144271851,None,2,001,2022_Oct_01_1338,Tutorial_3,2021.1.4,59.95042098724027,
163,0,163,0,5,339.4855195999844,None,339.4855195999844,None,-0.2981770833333333,-0.43359375,1,0,0,1.4140381999313831,target,0.0077048297971487045,None,2,001,2022_Oct_01_1338,Tutorial_3,2021.1.4,59.95042098724027,
164,0,164,0,10,340.9672971999971,None,340.9672971999971,None,0.4635416666666667,0.4583333333333333,1,0,0,3.017189500038512,target,0.004152840003371239,None,2,001,2022_Oct_01_1338,Tutorial_3,2021.1.4,59.95042098724027,
165,0,165,0,5,344.0143565000035,None,344.0143565000035,None,0.3971354166666667,0.3828125,1,0,0,1.8019323000917211,target,0.007619720068760216,None,2,001,2022_Oct_01_1338,Tutorial_3,2021.1.4,59.95042098724027,
166,0,166,0,5,345.84070019994397,None,345.84070019994397,None,-0.390625,0.421875,1,0,0,3.1021618999075145,target,0.014870529994368553,None,2,001,2022_Oct_01_1338,Tutorial_3,2021.1.4,59.95042098724027,
167,0,167,0,10,348.98492700001225,None,348.98492700001225,None,0.029947916666666668,0.022135416666666668,1,0,0,2.2230521999299526,target,0.013450229889713228,None,2,001,2022_Oct_01_1338,Tutorial_3,2021.1.4,59.95042098724027,
168,0,168,0,5,351.24683750001714,None,351.24683750001714,None,0.036458333333333336,-0.4361979166666667,1,0,0,1.440282900002785,target,0.016461240011267364,None,2,001,2022_Oct_01_1338,Tutorial_3,2021.1.4,59.95042098724027,
169,0,169,0,5,352.7265614999924,None,352.7265614999924,None,-0.2916666666666667,0.4270833333333333,1,0,0,1.7156129999784753,target,0.010632530087605119,None,2,001,2022_Oct_01_1338,Tutorial_3,2021.1.4,59.95042098724027,
170,0,170,0,10,354.4881192999892,None,354.4881192999892,None,-0.24609375,0.2669270833333333,1,0,0,1.5543774999678135,target,0.009387130034156144,None,2,001,2022_Oct_01_1338,Tutorial_3,2021.1.4,59.95042098724027,
171,0,171,0,5,356.05817370000295,None,356.05817370000295,None,0.23046875,0.036458333333333336,1,0,0,1.6385384999448434,target,0.011412620078772306,None,2,001,2022_Oct_01_1338,Tutorial_3,2021.1.4,59.95042098724027,
172,0,172,0,10,357.7492309999652,None,357.7492309999652,None,-0.26953125,0.0546875,1,0,0,1.6301869000308216,target,0.003652030020020902,None,2,001,2022_Oct_01_1338,Tutorial_3,2021.1.4,59.95042098724027,
173,0,173,0,5,359.41422409994993,None,359.41422409994993,None,-0.11848958333333333,0.055989583333333336,1,0,0,1.2572140999836847,target,0.0031618200009688735,None,2,001,2022_Oct_01_1338,Tutorial_3,2021.1.4,59.95042098724027,
174,0,174,0,5,360.69003509997856,None,360.69003509997856,None,-0.4505208333333333,0.22526041666666666,1,0,0,1.5465202999766916,target,0.0019548200070858,None,2,001,2022_Oct_01_1338,Tutorial_3,2021.1.4,59.95042098724027,
175,0,175,0,5,362.2719253000105,None,362.2719253000105,None,-0.4778645833333333,-0.4752604166666667,1,0,0,2.3431093000108376,target,0.01571533002424985,None,2,001,2022_Oct_01_1338,Tutorial_3,2021.1.4,59.95042098724027,
176,0,176,0,5,364.67585399991367,None,364.67585399991367,None,0.2578125,-0.3815104166666667,1,0,0,2.358868799987249,target,0.005543740000575781,None,2,001,2022_Oct_01_1338,Tutorial_3,2021.1.4,59.95042098724027,
177,0,177,0,5,367.09131369995885,None,367.09131369995885,None,0.4544270833333333,-0.4309895833333333,1,0,0,1.2727057998999953,target,0.0051881399704143405,None,2,001,2022_Oct_01_1338,Tutorial_3,2021.1.4,59.95042098724027,
178,0,178,0,5,368.4015883000102,None,368.4015883000102,None,-0.13541666666666666,-0.28125,1,0,0,1.2795460999477655,target,0.01166053011547774,None,2,001,2022_Oct_01_1338,Tutorial_3,2021.1.4,59.95042098724027,
179,0,179,0,5,369.7263544999296,None,369.7263544999296,None,-0.18098958333333334,0.049479166666666664,1,0,0,1.3762786999577656,target,0.003959129913710058,None,2,001,2022_Oct_01_1338,Tutorial_3,2021.1.4,59.95042098724027,
180,0,180,0,5,371.1348190000281,None,371.1348190000281,None,-0.3658854166666667,0.4296875,1,0,0,1.8438736000098288,target,0.016300030052661896,None,2,001,2022_Oct_01_1338,Tutorial_3,2021.1.4,59.95042098724027,
181,0,181,0,5,373.01334029994905,None,373.01334029994905,None,0.4609375,0.11458333333333333,1,0,0,1.6614122999599203,target,0.01231403008569032,None,2,001,2022_Oct_01_1338,Tutorial_3,2021.1.4,59.95042098724027,
182,0,182,0,5,374.72730309993494,None,374.72730309993494,None,0.23828125,-0.2981770833333333,1,0,0,1.5092651000013575,target,0.0051284299697726965,None,2,001,2022_Oct_01_1338,Tutorial_3,2021.1.4,59.95042098724027,
183,0,183,0,10,376.2850014999276,None,376.2850014999276,None,0.3919270833333333,-0.37109375,1,0,0,1.665866499999538,target,0.016637240070849657,None,2,001,2022_Oct_01_1338,Tutorial_3,2021.1.4,59.95042098724027,
184,0,184,0,5,377.97578460001387,None,377.97578460001387,None,0.22265625,0.11848958333333333,1,0,0,1.2252013001125306,target,0.00019091996364295483,None,2,001,2022_Oct_01_1338,Tutorial_3,2021.1.4,59.95042098724027,
185,0,185,0,5,379.2350318999961,None,379.2350318999961,None,0.42578125,0.3828125,1,0,0,1.6380737000145018,target,0.015557929989881814,None,2,001,2022_Oct_01_1338,Tutorial_3,2021.1.4,59.95042098724027,
186,0,186,0,5,380.9050639999332,None,380.9050639999332,None,0.4557291666666667,-0.10286458333333333,1,0,0,1.337688700063154,target,0.003061119932681322,None,2,001,2022_Oct_01_1338,Tutorial_3,2021.1.4,59.95042098724027,
187,0,187,0,5,382.2752295000246,None,382.2752295000246,None,0.3671875,0.018229166666666668,1,0,0,0.8033471000380814,target,0.01519382989499718,None,2,001,2022_Oct_01_1338,Tutorial_3,2021.1.4,59.95042098724027,
188,0,188,0,5,383.1077064999845,None,383.1077064999845,None,-0.453125,-0.3606770833333333,1,0,0,1.9552785999840125,target,0.003714919905178249,None,2,001,2022_Oct_01_1338,Tutorial_3,2021.1.4,59.95042098724027,
189,0,189,0,10,385.1062286000233,None,385.1062286000233,None,0.18880208333333334,-0.08984375,1,0,0,1.8925419000443071,target,0.01389313000254333,None,2,001,2022_Oct_01_1338,Tutorial_3,2021.1.4,59.95042098724027,
190,0,190,0,5,387.0112108999165,None,387.0112108999165,None,-0.3645833333333333,-0.20963541666666666,1,0,0,1.554520000005141,target,0.011663020122796297,None,2,001,2022_Oct_01_1338,Tutorial_3,2021.1.4,59.95042098724027,
191,0,191,0,10,388.6088313999353,None,388.6088313999353,None,-0.2721354166666667,0.36328125,1,0,0,3.33449059992563,target,0.011604329920373857,None,2,001,2022_Oct_01_1338,Tutorial_3,2021.1.4,59.95042098724027,
192,0,192,0,5,391.9620065999916,None,391.9620065999916,None,-0.06640625,0.15885416666666666,1,0,0,1.1988360999384895,target,0.008108219946734607,None,2,001,2022_Oct_01_1338,Tutorial_3,2021.1.4,59.95042098724027,
193,0,193,0,10,393.20760139997583,None,393.20760139997583,None,-0.22265625,-0.17057291666666666,1,0,0,1.0747558999573812,target,0.00962732988409698,None,2,001,2022_Oct_01_1338,Tutorial_3,2021.1.4,59.95042098724027,
194,0,194,0,10,394.3368946999544,None,394.3368946999544,None,0.23046875,-0.44140625,1,0,0,2.255060499999672,target,0.012264539836905897,None,2,001,2022_Oct_01_1338,Tutorial_3,2021.1.4,59.95042098724027,
195,0,195,0,5,396.6059636999853,None,396.6059636999853,None,0.375,-0.048177083333333336,1,0,0,1.6039488000096753,target,0.012122820131480694,None,2,001,2022_Oct_01_1338,Tutorial_3,2021.1.4,59.95042098724027,
196,0,196,0,5,398.2438973999815,None,398.2438973999815,None,0.1953125,0.3854166666666667,1,0,0,1.3951327999820933,target,0.01595232984982431,None,2,001,2022_Oct_01_1338,Tutorial_3,2021.1.4,59.95042098724027,
197,0,197,0,5,399.6861741999164,None,399.6861741999164,None,0.1796875,0.15625,1,0,0,1.4326480000745505,target,0.003004829864948988,None,2,001,2022_Oct_01_1338,Tutorial_3,2021.1.4,59.95042098724027,
198,0,198,0,10,401.18925509997644,None,401.18925509997644,None,-0.17057291666666666,0.4622395833333333,1,0,0,2.2112868000986055,target,0.002447939943522215,None,2,001,2022_Oct_01_1338,Tutorial_3,2021.1.4,59.95042098724027,
199,0,199,0,5,403.4177351000253,None,403.4177351000253,None,-0.4700520833333333,0.09895833333333333,1,0,0,2.9314925000071526,target,0.00747682002838701,None,2,001,2022_Oct_01_1338,Tutorial_3,2021.1.4,59.95042098724027,
