loop.thisRepN,loop.thisTrialN,loop.thisN,loop.thisIndex,num_distr,fixation.started,fixation.stopped,target.started,target.stopped,mouse.x,mouse.y,mouse.leftButton,mouse.midButton,mouse.rightButton,mouse.time,mouse.clicked_name,mouse.started,mouse.stopped,participant,session,date,expName,psychopyVersion,frameRate,
0,0,0,0,10,22.613668899983168,None,22.613668899983168,None,0.19401041666666666,0.3502604166666667,1,0,0,1.9844916000729427,target,0.007838879944756627,None,3,001,2022_Oct_05_1915,Tutorial_3,2021.1.4,60.00078000210939,
1,0,1,0,5,24.54544299992267,None,24.54544299992267,None,0.18880208333333334,-0.2552083333333333,1,0,0,1.986503200023435,target,0.009569460060447454,None,3,001,2022_Oct_05_1915,Tutorial_3,2021.1.4,60.00078000210939,
2,0,2,0,5,26.58167769992724,None,26.58167769992724,None,-0.15755208333333334,0.04296875,1,0,0,1.0973955999361351,target,0.015932079986669123,None,3,001,2022_Oct_05_1915,Tutorial_3,2021.1.4,60.00078000210939,
3,0,3,0,10,27.737899699946865,None,27.737899699946865,None,0.3502604166666667,-0.13411458333333334,1,0,0,1.4056687001138926,target,0.009863779880106449,None,3,001,2022_Oct_05_1915,Tutorial_3,2021.1.4,60.00078000210939,
4,0,4,0,10,29.200075699947774,None,29.200075699947774,None,0.015625,0.3984375,1,0,0,4.755846600048244,target,0.007783079985529184,None,3,001,2022_Oct_05_1915,Tutorial_3,2021.1.4,60.00078000210939,
5,0,5,0,5,34.00138369994238,None,34.00138369994238,None,0.4075520833333333,0.044270833333333336,1,0,0,1.262016799999401,target,0.0022466599475592375,None,3,001,2022_Oct_05_1915,Tutorial_3,2021.1.4,60.00078000210939,
6,0,6,0,10,35.32964529993478,None,35.32964529993478,None,-0.20963541666666666,-0.4986979166666667,1,0,0,3.2374153999844566,target,0.008732179878279567,None,3,001,2022_Oct_05_1915,Tutorial_3,2021.1.4,60.00078000210939,
7,0,7,0,10,38.615489699994214,None,38.615489699994214,None,0.2903645833333333,0.25,1,0,0,1.5480662999907508,target,0.013830679934471846,None,3,001,2022_Oct_05_1915,Tutorial_3,2021.1.4,60.00078000210939,
8,0,8,0,10,40.21073829999659,None,40.21073829999659,None,0.01953125,-0.4427083333333333,1,0,0,2.3002927000634372,target,0.013450279948301613,None,3,001,2022_Oct_05_1915,Tutorial_3,2021.1.4,60.00078000210939,
9,0,9,0,10,42.59314140002243,None,42.59314140002243,None,-0.1640625,-0.0013020833333333333,1,0,0,2.002820400055498,target,2.66998540610075e-05,None,3,001,2022_Oct_05_1915,Tutorial_3,2021.1.4,60.00078000210939,
10,0,10,0,10,44.65126039995812,None,44.65126039995812,None,0.022135416666666668,0.2682291666666667,1,0,0,1.1708104000426829,target,0.0018932600505650043,None,3,001,2022_Oct_05_1915,Tutorial_3,2021.1.4,60.00078000210939,
11,0,11,0,10,45.86647769995034,None,45.86647769995034,None,-0.3828125,-0.15885416666666666,1,0,0,1.327217800077051,target,0.01217057986650616,None,3,001,2022_Oct_05_1915,Tutorial_3,2021.1.4,60.00078000210939,
12,0,12,0,10,47.24170050001703,None,47.24170050001703,None,-0.4934895833333333,0.3697916666666667,1,0,0,1.558204000000842,target,0.003671959973871708,None,3,001,2022_Oct_05_1915,Tutorial_3,2021.1.4,60.00078000210939,
13,0,13,0,5,48.838669699965976,None,48.838669699965976,None,-0.4596354166666667,-0.2109375,1,0,0,1.3393385000526905,target,0.007302260026335716,None,3,001,2022_Oct_05_1915,Tutorial_3,2021.1.4,60.00078000210939,
14,0,14,0,10,50.23234129999764,None,50.23234129999764,None,0.15104166666666666,-0.16145833333333334,1,0,0,1.2726657999446616,target,0.013069279957562685,None,3,001,2022_Oct_05_1915,Tutorial_3,2021.1.4,60.00078000210939,
15,0,15,0,10,51.56344960001297,None,51.56344960001297,None,0.4700520833333333,0.17447916666666666,1,0,0,1.3919653999619186,target,0.007346180034801364,None,3,001,2022_Oct_05_1915,Tutorial_3,2021.1.4,60.00078000210939,
16,0,16,0,5,52.99354960001074,None,52.99354960001074,None,0.3893229166666667,-0.4661458333333333,1,0,0,1.7541280000004917,target,0.010500060045160353,None,3,001,2022_Oct_05_1915,Tutorial_3,2021.1.4,60.00078000210939,
17,0,17,0,5,54.798748199944384,None,54.798748199944384,None,0.3346354166666667,0.3736979166666667,1,0,0,1.3682983999606222,target,0.0003959599416702986,None,3,001,2022_Oct_05_1915,Tutorial_3,2021.1.4,60.00078000210939,
18,0,18,0,10,56.2507093999302,None,56.2507093999302,None,-0.24609375,0.22395833333333334,1,0,0,1.7025282999966294,target,0.006146700005047023,None,3,001,2022_Oct_05_1915,Tutorial_3,2021.1.4,60.00078000210939,
19,0,19,0,5,57.98708470002748,None,57.98708470002748,None,0.2630208333333333,0.11067708333333333,1,0,0,1.1153849998954684,target,0.003827259875833988,None,3,001,2022_Oct_05_1915,Tutorial_3,2021.1.4,60.00078000210939,
20,0,20,0,10,59.15232330001891,None,59.15232330001891,None,0.018229166666666668,-0.4361979166666667,1,0,0,2.039034300018102,target,2.4660024791955948e-05,None,3,001,2022_Oct_05_1915,Tutorial_3,2021.1.4,60.00078000210939,
21,0,21,0,10,61.26274449995253,None,61.26274449995253,None,0.0013020833333333333,-0.014322916666666666,1,0,0,3.742526000016369,target,0.007094679982401431,None,3,001,2022_Oct_05_1915,Tutorial_3,2021.1.4,60.00078000210939,
22,0,22,0,10,65.05601669999305,None,65.05601669999305,None,0.3216145833333333,0.09375,1,0,0,1.2651465999661013,target,0.0028223800472915173,None,3,001,2022_Oct_05_1915,Tutorial_3,2021.1.4,60.00078000210939,
23,0,23,0,10,66.37803779996466,None,66.37803779996466,None,0.4518229166666667,0.09895833333333333,1,0,0,1.762091499986127,target,0.0069310799008235335,None,3,001,2022_Oct_05_1915,Tutorial_3,2021.1.4,60.00078000210939,
24,0,24,0,10,68.21050579997245,None,68.21050579997245,None,-0.17838541666666666,0.4596354166666667,1,0,0,3.8934889000374824,target,0.0003362799761816859,None,3,001,2022_Oct_05_1915,Tutorial_3,2021.1.4,60.00078000210939,
25,0,25,0,5,72.13227099995129,None,72.13227099995129,None,-0.48828125,0.03125,1,0,0,1.4390315000200644,target,0.013337159994989634,None,3,001,2022_Oct_05_1915,Tutorial_3,2021.1.4,60.00078000210939,
26,0,26,0,10,73.63726019999012,None,73.63726019999012,None,0.3697916666666667,0.15494791666666666,1,0,0,1.2261562999337912,target,0.012541179894469678,None,3,001,2022_Oct_05_1915,Tutorial_3,2021.1.4,60.00078000210939,
27,0,27,0,10,74.92627890000585,None,74.92627890000585,None,-0.4283854166666667,0.10416666666666667,1,0,0,1.1095147000160068,target,0.002965679857879877,None,3,001,2022_Oct_05_1915,Tutorial_3,2021.1.4,60.00078000210939,
28,0,28,0,10,76.06752539996523,None,76.06752539996523,None,-0.022135416666666668,-0.20833333333333334,1,0,0,1.6316525998990983,target,0.006466959952376783,None,3,001,2022_Oct_05_1915,Tutorial_3,2021.1.4,60.00078000210939,
29,0,29,0,10,77.76301689993124,None,77.76301689993124,None,0.3151041666666667,0.3919270833333333,1,0,0,1.355091099976562,target,0.00766947993542999,None,3,001,2022_Oct_05_1915,Tutorial_3,2021.1.4,60.00078000210939,
30,0,30,0,5,79.15288489998784,None,79.15288489998784,None,0.4440104166666667,0.4427083333333333,1,0,0,1.2118342000758275,target,0.008631160017102957,None,3,001,2022_Oct_05_1915,Tutorial_3,2021.1.4,60.00078000210939,
31,0,31,0,5,80.40956619998906,None,80.40956619998906,None,0.46875,-0.4270833333333333,1,0,0,1.3320084000006318,target,0.0019983600359410048,None,3,001,2022_Oct_05_1915,Tutorial_3,2021.1.4,60.00078000210939,
32,0,32,0,10,81.82805509993341,None,81.82805509993341,None,0.2630208333333333,0.059895833333333336,1,0,0,2.505095100030303,target,0.014571619918569922,None,3,001,2022_Oct_05_1915,Tutorial_3,2021.1.4,60.00078000210939,
33,0,33,0,10,84.40019519999623,None,84.40019519999623,None,0.3932291666666667,0.3372395833333333,1,0,0,1.1137455999851227,target,0.006642979918979108,None,3,001,2022_Oct_05_1915,Tutorial_3,2021.1.4,60.00078000210939,
34,0,34,0,10,85.56658350001089,None,85.56658350001089,None,0.15364583333333334,0.4010416666666667,1,0,0,1.4276399000082165,target,0.009060579934157431,None,3,001,2022_Oct_05_1915,Tutorial_3,2021.1.4,60.00078000210939,
35,0,35,0,10,87.0347603999544,None,87.0347603999544,None,-0.08723958333333333,0.48828125,1,0,0,4.864557399996556,target,0.004653559997677803,None,3,001,2022_Oct_05_1915,Tutorial_3,2021.1.4,60.00078000210939,
36,0,36,0,5,91.93708599999081,None,91.93708599999081,None,-0.4752604166666667,-0.4036458333333333,1,0,0,1.3053369999397546,target,0.009770559961907566,None,3,001,2022_Oct_05_1915,Tutorial_3,2021.1.4,60.00078000210939,
37,0,37,0,5,93.28076420002617,None,93.28076420002617,None,0.3971354166666667,0.057291666666666664,1,0,0,1.6195343000581488,target,0.011699560098350048,None,3,001,2022_Oct_05_1915,Tutorial_3,2021.1.4,60.00078000210939,
38,0,38,0,5,94.95831439993344,None,94.95831439993344,None,0.2799479166666667,-0.2994791666666667,1,0,0,1.5416633000131696,target,0.0024221799103543162,None,3,001,2022_Oct_05_1915,Tutorial_3,2021.1.4,60.00078000210939,
39,0,39,0,5,96.54614170000423,None,96.54614170000423,None,-0.18359375,-0.22916666666666666,1,0,0,1.680271100020036,target,0.008386960020288825,None,3,001,2022_Oct_05_1915,Tutorial_3,2021.1.4,60.00078000210939,
40,0,40,0,5,98.27251159993466,None,98.27251159993466,None,0.4752604166666667,-0.3346354166666667,1,0,0,1.4503896000096574,target,0.004519060021266341,None,3,001,2022_Oct_05_1915,Tutorial_3,2021.1.4,60.00078000210939,
41,0,41,0,5,99.77197649993468,None,99.77197649993468,None,-0.040364583333333336,0.13932291666666666,1,0,0,1.2864223999204114,target,0.0022220599930733442,None,3,001,2022_Oct_05_1915,Tutorial_3,2021.1.4,60.00078000210939,
42,0,42,0,5,101.1064166999422,None,101.1064166999422,None,-0.3502604166666667,0.07942708333333333,1,0,0,0.975451200036332,target,0.015561579843051732,None,3,001,2022_Oct_05_1915,Tutorial_3,2021.1.4,60.00078000210939,
43,0,43,0,5,102.11705240001902,None,102.11705240001902,None,-0.4296875,-0.4453125,1,0,0,1.8174835999961942,target,0.005726260016672313,None,3,001,2022_Oct_05_1915,Tutorial_3,2021.1.4,60.00078000210939,
44,0,44,0,10,104.01187950000167,None,104.01187950000167,None,-0.22395833333333334,-0.2786458333333333,1,0,0,2.634399199974723,target,0.007148779928684235,None,3,001,2022_Oct_05_1915,Tutorial_3,2021.1.4,60.00078000210939,
45,0,45,0,5,106.66519780003,None,106.66519780003,None,0.01171875,0.11848958333333333,1,0,0,1.1237837000517175,target,0.011807760107330978,None,3,001,2022_Oct_05_1915,Tutorial_3,2021.1.4,60.00078000210939,
46,0,46,0,5,107.8445253999671,None,107.8445253999671,None,0.3815104166666667,-0.19140625,1,0,0,0.9925013000611216,target,0.002697260002605617,None,3,001,2022_Oct_05_1915,Tutorial_3,2021.1.4,60.00078000210939,
47,0,47,0,5,108.87135109992232,None,108.87135109992232,None,-0.41796875,0.21354166666666666,1,0,0,1.8378645000047982,target,0.010844560107216239,None,3,001,2022_Oct_05_1915,Tutorial_3,2021.1.4,60.00078000210939,
48,0,48,0,10,110.78020749997813,None,110.78020749997813,None,0.06770833333333333,0.11848958333333333,1,0,0,1.0492592999944463,target,0.0029773800633847713,None,3,001,2022_Oct_05_1915,Tutorial_3,2021.1.4,60.00078000210939,
49,0,49,0,5,111.8687713999534,None,111.8687713999534,None,0.33984375,-0.045572916666666664,1,0,0,0.886701500043273,target,0.0018701599910855293,None,3,001,2022_Oct_05_1915,Tutorial_3,2021.1.4,60.00078000210939,
50,0,50,0,10,112.82455389993265,None,112.82455389993265,None,0.14453125,-0.40234375,1,0,0,3.197385899955407,target,0.008234479930251837,None,3,001,2022_Oct_05_1915,Tutorial_3,2021.1.4,60.00078000210939,
51,0,51,0,10,116.0704544999171,None,116.0704544999171,None,0.06380208333333333,0.10677083333333333,1,0,0,1.4655384999932721,target,0.010039780056104064,None,3,001,2022_Oct_05_1915,Tutorial_3,2021.1.4,60.00078000210939,
52,0,52,0,10,117.59255199995823,None,117.59255199995823,None,0.3502604166666667,0.2578125,1,0,0,1.5552323999581859,target,0.00847107998561114,None,3,001,2022_Oct_05_1915,Tutorial_3,2021.1.4,60.00078000210939,
53,0,53,0,5,119.19685690000188,None,119.19685690000188,None,-0.44140625,0.09114583333333333,1,0,0,1.8129083999665454,target,0.0002862601540982723,None,3,001,2022_Oct_05_1915,Tutorial_3,2021.1.4,60.00078000210939,
54,0,54,0,5,121.04913850000594,None,121.04913850000594,None,0.3645833333333333,-0.21875,1,0,0,1.2427755000535399,target,0.008775460068136454,None,3,001,2022_Oct_05_1915,Tutorial_3,2021.1.4,60.00078000210939,
55,0,55,0,5,122.34041339997202,None,122.34041339997202,None,-0.4596354166666667,-0.24869791666666666,1,0,0,1.7854179999558255,target,0.003777559963054955,None,3,001,2022_Oct_05_1915,Tutorial_3,2021.1.4,60.00078000210939,
56,0,56,0,10,124.18287599994801,None,124.18287599994801,None,-0.20182291666666666,-0.18619791666666666,1,0,0,2.0642589000053704,target,0.009255079901777208,None,3,001,2022_Oct_05_1915,Tutorial_3,2021.1.4,60.00078000210939,
57,0,57,0,5,126.28230399999302,None,126.28230399999302,None,-0.3463541666666667,-0.4453125,1,0,0,2.5445542000234127,target,0.010384159977547824,None,3,001,2022_Oct_05_1915,Tutorial_3,2021.1.4,60.00078000210939,
58,0,58,0,10,128.90144809999038,None,128.90144809999038,None,-0.061197916666666664,0.4348958333333333,1,0,0,3.9321192000061274,target,0.00946330011356622,None,3,001,2022_Oct_05_1915,Tutorial_3,2021.1.4,60.00078000210939,
59,0,59,0,5,132.86827089998405,None,132.86827089998405,None,0.3854166666666667,-0.3372395833333333,1,0,0,1.8694205000065267,target,0.01276555994991213,None,3,001,2022_Oct_05_1915,Tutorial_3,2021.1.4,60.00078000210939,
60,0,60,0,5,134.77637370000593,None,134.77637370000593,None,-0.3606770833333333,0.14453125,1,0,0,1.6382656999630854,target,0.01104535988997668,None,3,001,2022_Oct_05_1915,Tutorial_3,2021.1.4,60.00078000210939,
61,0,61,0,5,136.4530470999889,None,136.4530470999889,None,-0.00390625,0.171875,1,0,0,1.349783599958755,target,0.008964159991592169,None,3,001,2022_Oct_05_1915,Tutorial_3,2021.1.4,60.00078000210939,
62,0,62,0,5,137.8522809999995,None,137.8522809999995,None,0.4700520833333333,-0.3984375,1,0,0,2.2341895001009107,target,0.0038913600146770477,None,3,001,2022_Oct_05_1915,Tutorial_3,2021.1.4,60.00078000210939,
63,0,63,0,5,140.12884289992508,None,140.12884289992508,None,0.19401041666666666,-0.21223958333333334,1,0,0,1.7957844999618828,target,0.004284860100597143,None,3,001,2022_Oct_05_1915,Tutorial_3,2021.1.4,60.00078000210939,
64,0,64,0,10,142.01321429992095,None,142.01321429992095,None,0.38671875,0.1484375,1,0,0,1.2620427999645472,target,0.0010010999394580722,None,3,001,2022_Oct_05_1915,Tutorial_3,2021.1.4,60.00078000210939,
65,0,65,0,10,143.33664529991802,None,143.33664529991802,None,-0.09375,-0.1328125,1,0,0,1.5455644000321627,target,0.007280980120413005,None,3,001,2022_Oct_05_1915,Tutorial_3,2021.1.4,60.00078000210939,
66,0,66,0,5,144.9146236999659,None,144.9146236999659,None,0.20833333333333334,0.3033854166666667,1,0,0,1.1732274000532925,target,0.007098359987139702,None,3,001,2022_Oct_05_1915,Tutorial_3,2021.1.4,60.00078000210939,
67,0,67,0,10,146.15818229992874,None,146.15818229992874,None,-0.06380208333333333,-0.13802083333333334,1,0,0,1.2541293000103906,target,0.01446429977659136,None,3,001,2022_Oct_05_1915,Tutorial_3,2021.1.4,60.00078000210939,
68,0,68,0,5,147.44257089996245,None,147.44257089996245,None,0.08333333333333333,0.3216145833333333,1,0,0,1.4741690000519156,target,0.013373060035519302,None,3,001,2022_Oct_05_1915,Tutorial_3,2021.1.4,60.00078000210939,
69,0,69,0,10,148.99497180001345,None,148.99497180001345,None,0.1484375,0.15885416666666666,1,0,0,0.9566771000390872,target,0.006402279948815703,None,3,001,2022_Oct_05_1915,Tutorial_3,2021.1.4,60.00078000210939,
70,0,70,0,5,149.98351980000734,None,149.98351980000734,None,-0.3763020833333333,0.22135416666666666,1,0,0,1.780564000015147,target,0.0029266600031405687,None,3,001,2022_Oct_05_1915,Tutorial_3,2021.1.4,60.00078000210939,
71,0,71,0,5,151.79955939995125,None,151.79955939995125,None,-0.234375,0.16536458333333334,1,0,0,1.0363763000350446,target,0.012455160147510469,None,3,001,2022_Oct_05_1915,Tutorial_3,2021.1.4,60.00078000210939,
72,0,72,0,5,152.89258580002934,None,152.89258580002934,None,-0.1171875,0.4479166666666667,1,0,0,1.2690150999696925,target,0.013690979918465018,None,3,001,2022_Oct_05_1915,Tutorial_3,2021.1.4,60.00078000210939,
73,0,73,0,10,154.20842359995004,None,154.20842359995004,None,0.4479166666666667,0.22265625,1,0,0,1.5531788000371307,target,0.01543607993517071,None,3,001,2022_Oct_05_1915,Tutorial_3,2021.1.4,60.00078000210939,
74,0,74,0,5,155.80311330000404,None,155.80311330000404,None,-0.24479166666666666,-0.3385416666666667,1,0,0,3.0099433000432327,target,0.006874860147945583,None,3,001,2022_Oct_05_1915,Tutorial_3,2021.1.4,60.00078000210939,
75,0,75,0,5,158.8666393000167,None,158.8666393000167,None,-0.20572916666666666,-0.17708333333333334,1,0,0,1.3038194999098778,target,0.0002960599958896637,None,3,001,2022_Oct_05_1915,Tutorial_3,2021.1.4,60.00078000210939,
76,0,76,0,10,160.25332569994498,None,160.25332569994498,None,-0.1875,0.19401041666666666,1,0,0,2.386317200027406,target,0.009997899876907468,None,3,001,2022_Oct_05_1915,Tutorial_3,2021.1.4,60.00078000210939,
77,0,77,0,5,162.66324399993755,None,162.66324399993755,None,0.23307291666666666,0.4778645833333333,1,0,0,1.9553668999578804,target,0.011148259975016117,None,3,001,2022_Oct_05_1915,Tutorial_3,2021.1.4,60.00078000210939,
78,0,78,0,10,164.69058029993903,None,164.69058029993903,None,-0.09505208333333333,-0.33984375,1,0,0,3.27505229995586,target,0.006167279905639589,None,3,001,2022_Oct_05_1915,Tutorial_3,2021.1.4,60.00078000210939,
79,0,79,0,10,168.0216826000251,None,168.0216826000251,None,0.3723958333333333,-0.036458333333333336,1,0,0,2.440279000089504,target,0.002820779918693006,None,3,001,2022_Oct_05_1915,Tutorial_3,2021.1.4,60.00078000210939,
80,0,80,0,5,170.4969287000131,None,170.4969287000131,None,0.20572916666666666,0.07942708333333333,1,0,0,1.2874860999872908,target,0.008959059952758253,None,3,001,2022_Oct_05_1915,Tutorial_3,2021.1.4,60.00078000210939,
81,0,81,0,10,171.8551928999368,None,171.8551928999368,None,-0.24869791666666666,0.12760416666666666,1,0,0,2.4097424999345094,target,0.006506779929623008,None,3,001,2022_Oct_05_1915,Tutorial_3,2021.1.4,60.00078000210939,
82,0,82,0,5,174.29171979997773,None,174.29171979997773,None,0.4622395833333333,0.045572916666666664,1,0,0,1.7010986000532284,target,0.011949060019105673,None,3,001,2022_Oct_05_1915,Tutorial_3,2021.1.4,60.00078000210939,
83,0,83,0,10,176.0806834999239,None,176.0806834999239,None,0.11979166666666667,-0.22395833333333334,1,0,0,1.6457358999177814,target,0.001065799850039184,None,3,001,2022_Oct_05_1915,Tutorial_3,2021.1.4,60.00078000210939,
84,0,84,0,5,177.75688000000082,None,177.75688000000082,None,-0.06510416666666667,-0.20052083333333334,1,0,0,1.2793769999407232,target,0.011639959993772209,None,3,001,2022_Oct_05_1915,Tutorial_3,2021.1.4,60.00078000210939,
85,0,85,0,10,179.1137825999176,None,179.1137825999176,None,0.06640625,-0.2838541666666667,1,0,0,1.6531625998904929,target,0.009808999835513532,None,3,001,2022_Oct_05_1915,Tutorial_3,2021.1.4,60.00078000210939,
86,0,86,0,5,180.78810379991774,None,180.78810379991774,None,0.29296875,-0.08854166666666667,1,0,0,1.3814625999657437,target,0.004674940137192607,None,3,001,2022_Oct_05_1915,Tutorial_3,2021.1.4,60.00078000210939,
87,0,87,0,10,182.24243909993675,None,182.24243909993675,None,0.2513020833333333,-0.26171875,1,0,0,1.274051700020209,target,0.014678399893455207,None,3,001,2022_Oct_05_1915,Tutorial_3,2021.1.4,60.00078000210939,
88,0,88,0,5,183.55169589992147,None,183.55169589992147,None,-0.08203125,-0.4557291666666667,1,0,0,2.032273599994369,target,0.012493659975007176,None,3,001,2022_Oct_05_1915,Tutorial_3,2021.1.4,60.00078000210939,
89,0,89,0,10,185.67665329994634,None,185.67665329994634,None,-0.2734375,0.4895833333333333,1,0,0,2.327835000003688,target,0.004971220041625202,None,3,001,2022_Oct_05_1915,Tutorial_3,2021.1.4,60.00078000210939,
90,0,90,0,10,188.0722285999218,None,188.0722285999218,None,-0.061197916666666664,0.3958333333333333,1,0,0,1.3109112000092864,target,0.006710179848596454,None,3,001,2022_Oct_05_1915,Tutorial_3,2021.1.4,60.00078000210939,
91,0,91,0,5,189.39617760002147,None,189.39617760002147,None,-0.028645833333333332,0.20703125,1,0,0,1.7665122000034899,target,0.0059597400249913335,None,3,001,2022_Oct_05_1915,Tutorial_3,2021.1.4,60.00078000210939,
92,0,92,0,5,191.20718839997426,None,191.20718839997426,None,-0.3346354166666667,0.34375,1,0,0,1.3039748000446707,target,0.009046659921295941,None,3,001,2022_Oct_05_1915,Tutorial_3,2021.1.4,60.00078000210939,
93,0,93,0,10,192.56566969992127,None,192.56566969992127,None,0.4153645833333333,0.2838541666666667,1,0,0,1.5088574999244884,target,0.012033179984427989,None,3,001,2022_Oct_05_1915,Tutorial_3,2021.1.4,60.00078000210939,
94,0,94,0,5,194.1041683999356,None,194.1041683999356,None,-0.2942708333333333,-0.1484375,1,0,0,1.2523387999972329,target,0.013754260027781129,None,3,001,2022_Oct_05_1915,Tutorial_3,2021.1.4,60.00078000210939,
95,0,95,0,5,195.4076356999576,None,195.4076356999576,None,-0.18880208333333334,0.3684895833333333,1,0,0,2.38015640003141,target,0.013924580067396164,None,3,001,2022_Oct_05_1915,Tutorial_3,2021.1.4,60.00078000210939,
96,0,96,0,10,197.91135850001592,None,197.91135850001592,None,-0.328125,0.10677083333333333,1,0,0,1.7205222999909893,target,0.003138239844702184,None,3,001,2022_Oct_05_1915,Tutorial_3,2021.1.4,60.00078000210939,
97,0,97,0,10,199.68265779991634,None,199.68265779991634,None,-0.03515625,-0.037760416666666664,1,0,0,2.243634600075893,target,0.010224079946056008,None,3,001,2022_Oct_05_1915,Tutorial_3,2021.1.4,60.00078000210939,
98,0,98,0,5,201.94608239992522,None,201.94608239992522,None,-0.2708333333333333,-0.171875,1,0,0,2.863796400022693,target,0.004892640048637986,None,3,001,2022_Oct_05_1915,Tutorial_3,2021.1.4,60.00078000210939,
99,0,99,0,10,204.86375349992886,None,204.86375349992886,None,-0.4270833333333333,0.044270833333333336,1,0,0,1.4815956000238657,target,0.001041760086081922,None,3,001,2022_Oct_05_1915,Tutorial_3,2021.1.4,60.00078000210939,
100,0,100,0,5,206.4013157999143,None,206.4013157999143,None,-0.17057291666666666,0.20572916666666666,1,0,0,1.2926634999457747,target,0.003880679956637323,None,3,001,2022_Oct_05_1915,Tutorial_3,2021.1.4,60.00078000210939,
101,0,101,0,5,207.7448225999251,None,207.7448225999251,None,0.23567708333333334,0.2708333333333333,1,0,0,1.9236679000314325,target,0.0021863599540665746,None,3,001,2022_Oct_05_1915,Tutorial_3,2021.1.4,60.00078000210939,
102,0,102,0,5,209.7543211999582,None,209.7543211999582,None,0.3984375,0.203125,1,0,0,1.7427794999675825,target,0.0037996999453753233,None,3,001,2022_Oct_05_1915,Tutorial_3,2021.1.4,60.00078000210939,
103,0,103,0,10,211.5671572999563,None,211.5671572999563,None,0.18359375,-0.4518229166666667,1,0,0,2.4118724999716505,target,0.0005670798709616065,None,3,001,2022_Oct_05_1915,Tutorial_3,2021.1.4,60.00078000210939,
104,0,104,0,5,214.0042104999302,None,214.0042104999302,None,-0.18880208333333334,0.3190104166666667,1,0,0,2.208612499991432,target,0.01031686004716903,None,3,001,2022_Oct_05_1915,Tutorial_3,2021.1.4,60.00078000210939,
105,0,105,0,5,216.25407149991952,None,216.25407149991952,None,-0.13151041666666666,0.16276041666666666,1,0,0,1.051893200026825,target,0.01144135999493301,None,3,001,2022_Oct_05_1915,Tutorial_3,2021.1.4,60.00078000210939,
106,0,106,0,5,217.36269560002256,None,217.36269560002256,None,-0.4296875,-0.08854166666666667,1,0,0,1.4381118000019342,target,0.013197180000133812,None,3,001,2022_Oct_05_1915,Tutorial_3,2021.1.4,60.00078000210939,
107,0,107,0,10,218.87334719998762,None,218.87334719998762,None,0.06770833333333333,0.37109375,1,0,0,1.9394990000873804,target,0.000782579998485744,None,3,001,2022_Oct_05_1915,Tutorial_3,2021.1.4,60.00078000210939,
108,0,108,0,5,220.84005529992282,None,220.84005529992282,None,-0.4348958333333333,0.3893229166666667,1,0,0,2.546523099998012,target,0.01168866001535207,None,3,001,2022_Oct_05_1915,Tutorial_3,2021.1.4,60.00078000210939,
109,0,109,0,5,223.4464117999887,None,223.4464117999887,None,-0.23307291666666666,-0.06770833333333333,1,0,0,1.2473247000016272,target,0.009508879855275154,None,3,001,2022_Oct_05_1915,Tutorial_3,2021.1.4,60.00078000210939,
110,0,110,0,10,224.7720626000082,None,224.7720626000082,None,0.4010416666666667,-0.057291666666666664,1,0,0,1.9843269999837503,target,0.007478000014089048,None,3,001,2022_Oct_05_1915,Tutorial_3,2021.1.4,60.00078000210939,
111,0,111,0,10,226.82021379994694,None,226.82021379994694,None,-0.359375,0.4778645833333333,1,0,0,2.8750425999751315,target,0.0048076799139380455,None,3,001,2022_Oct_05_1915,Tutorial_3,2021.1.4,60.00078000210939,
112,0,112,0,5,229.72512389998883,None,229.72512389998883,None,-0.4895833333333333,-0.2109375,1,0,0,3.106402200064622,target,0.010749660083092749,None,3,001,2022_Oct_05_1915,Tutorial_3,2021.1.4,60.00078000210939,
113,0,113,0,5,232.86914149997756,None,232.86914149997756,None,0.21484375,0.296875,1,0,0,1.679015600006096,target,0.010678660008125007,None,3,001,2022_Oct_05_1915,Tutorial_3,2021.1.4,60.00078000210939,
114,0,114,0,10,234.6505424999632,None,234.6505424999632,None,0.036458333333333336,0.4791666666666667,1,0,0,3.0027257000328973,target,0.013692519976757467,None,3,001,2022_Oct_05_1915,Tutorial_3,2021.1.4,60.00078000210939,
115,0,115,0,5,237.6771649000002,None,237.6771649000002,None,-0.25,0.18359375,1,0,0,1.3308058000402525,target,0.006384960142895579,None,3,001,2022_Oct_05_1915,Tutorial_3,2021.1.4,60.00078000210939,
116,0,116,0,10,239.04936019994784,None,239.04936019994784,None,0.4010416666666667,0.0390625,1,0,0,1.4692445000400767,target,0.009560459991917014,None,3,001,2022_Oct_05_1915,Tutorial_3,2021.1.4,60.00078000210939,
117,0,117,0,10,240.5645794000011,None,240.5645794000011,None,0.3111979166666667,-0.3385416666666667,1,0,0,2.486626800033264,target,0.0018997599836438894,None,3,001,2022_Oct_05_1915,Tutorial_3,2021.1.4,60.00078000210939,
118,0,118,0,10,243.11383269994985,None,243.11383269994985,None,0.08854166666666667,-0.09505208333333333,1,0,0,1.8917433000169694,target,0.005191279924474657,None,3,001,2022_Oct_05_1915,Tutorial_3,2021.1.4,60.00078000210939,
119,0,119,0,5,245.04202970000915,None,245.04202970000915,None,0.3450520833333333,0.03515625,1,0,0,1.9066816999111325,target,0.008822059957310557,None,3,001,2022_Oct_05_1915,Tutorial_3,2021.1.4,60.00078000210939,
120,0,120,0,5,246.99712600000203,None,246.99712600000203,None,0.3671875,0.4153645833333333,1,0,0,1.509272399940528,target,0.015047380002215505,None,3,001,2022_Oct_05_1915,Tutorial_3,2021.1.4,60.00078000210939,
121,0,121,0,10,248.57510319992434,None,248.57510319992434,None,-0.4947916666666667,0.3424479166666667,1,0,0,2.007021400029771,target,0.007741080014966428,None,3,001,2022_Oct_05_1915,Tutorial_3,2021.1.4,60.00078000210939,
122,0,122,0,10,250.64625079999678,None,250.64625079999678,None,-0.006510416666666667,0.3294270833333333,1,0,0,1.3996944000246003,target,0.007604780024848878,None,3,001,2022_Oct_05_1915,Tutorial_3,2021.1.4,60.00078000210939,
123,0,123,0,5,252.0733977999771,None,252.0733977999771,None,-0.2864583333333333,0.21744791666666666,1,0,0,1.322524999966845,target,0.009241960127837956,None,3,001,2022_Oct_05_1915,Tutorial_3,2021.1.4,60.00078000210939,
124,0,124,0,10,253.4586800999241,None,253.4586800999241,None,0.026041666666666668,-0.13411458333333334,1,0,0,1.4226174999494106,target,0.005204780027270317,None,3,001,2022_Oct_05_1915,Tutorial_3,2021.1.4,60.00078000210939,
125,0,125,0,5,254.91751409997232,None,254.91751409997232,None,-0.08854166666666667,0.2799479166666667,1,0,0,1.4170185000402853,target,0.011791359982453287,None,3,001,2022_Oct_05_1915,Tutorial_3,2021.1.4,60.00078000210939,
126,0,126,0,5,256.3751135999337,None,256.3751135999337,None,-0.040364583333333336,0.10807291666666667,1,0,0,1.5786619000136852,target,0.005917259957641363,None,3,001,2022_Oct_05_1915,Tutorial_3,2021.1.4,60.00078000210939,
127,0,127,0,5,258.03255359991454,None,258.03255359991454,None,0.1171875,0.1015625,1,0,0,1.455059300060384,target,0.012930800090543926,None,3,001,2022_Oct_05_1915,Tutorial_3,2021.1.4,60.00078000210939,
128,0,128,0,5,259.54914279992227,None,259.54914279992227,None,0.20442708333333334,-0.375,1,0,0,1.7929487999062985,target,0.011274499935097992,None,3,001,2022_Oct_05_1915,Tutorial_3,2021.1.4,60.00078000210939,
129,0,129,0,10,261.42096259992104,None,261.42096259992104,None,-0.26953125,-0.2825520833333333,1,0,0,2.2429880999261513,target,0.01207009982317686,None,3,001,2022_Oct_05_1915,Tutorial_3,2021.1.4,60.00078000210939,
130,0,130,0,5,263.68096879997756,None,263.68096879997756,None,0.296875,-0.3723958333333333,1,0,0,1.4719889999832958,target,0.0005222399486228824,None,3,001,2022_Oct_05_1915,Tutorial_3,2021.1.4,60.00078000210939,
131,0,131,0,10,265.2402141999919,None,265.2402141999919,None,0.4075520833333333,-0.46875,1,0,0,1.982544400030747,target,0.004484600038267672,None,3,001,2022_Oct_05_1915,Tutorial_3,2021.1.4,60.00078000210939,
132,0,132,0,5,267.2535713999532,None,267.2535713999532,None,0.00390625,-0.3385416666666667,1,0,0,1.2323766000336036,target,0.011547059868462384,None,3,001,2022_Oct_05_1915,Tutorial_3,2021.1.4,60.00078000210939,
133,0,133,0,10,268.5638962999219,None,268.5638962999219,None,0.2747395833333333,0.24869791666666666,1,0,0,2.1786517000291497,target,0.008282000082544982,None,3,001,2022_Oct_05_1915,Tutorial_3,2021.1.4,60.00078000210939,
134,0,134,0,5,270.76337499998044,None,270.76337499998044,None,-0.2786458333333333,-0.4322916666666667,1,0,0,2.091066600056365,target,0.0051556400721892715,None,3,001,2022_Oct_05_1915,Tutorial_3,2021.1.4,60.00078000210939,
135,0,135,0,10,272.92840309999883,None,272.92840309999883,None,0.16276041666666666,-0.2421875,1,0,0,1.4955728000495583,target,0.007775779929943383,None,3,001,2022_Oct_05_1915,Tutorial_3,2021.1.4,60.00078000210939,
136,0,136,0,5,274.45408659998793,None,274.45408659998793,None,0.39453125,-0.049479166666666664,1,0,0,1.41743030003272,target,0.008516960078850389,None,3,001,2022_Oct_05_1915,Tutorial_3,2021.1.4,60.00078000210939,
137,0,137,0,5,275.92562049999833,None,275.92562049999833,None,0.22135416666666666,-0.20052083333333334,1,0,0,1.3426652000052854,target,0.015599279897287488,None,3,001,2022_Oct_05_1915,Tutorial_3,2021.1.4,60.00078000210939,
138,0,138,0,10,277.32088689995,None,277.32088689995,None,-0.15234375,0.48828125,1,0,0,3.6218175999820232,target,0.009155179839581251,None,3,001,2022_Oct_05_1915,Tutorial_3,2021.1.4,60.00078000210939,
139,0,139,0,5,280.9776654000161,None,280.9776654000161,None,0.04296875,0.24869791666666666,1,0,0,1.171464700018987,target,0.011163859977386892,None,3,001,2022_Oct_05_1915,Tutorial_3,2021.1.4,60.00078000210939,
140,0,140,0,10,282.22202099999413,None,282.22202099999413,None,-0.10807291666666667,-0.0703125,1,0,0,1.639250100008212,target,0.009156200103461742,None,3,001,2022_Oct_05_1915,Tutorial_3,2021.1.4,60.00078000210939,
141,0,141,0,10,283.9237395999953,None,283.9237395999953,None,0.33203125,0.2799479166666667,1,0,0,1.1890009000198916,target,0.008049580035731196,None,3,001,2022_Oct_05_1915,Tutorial_3,2021.1.4,60.00078000210939,
142,0,142,0,10,285.17997529997956,None,285.17997529997956,None,-0.4088541666666667,-0.390625,1,0,0,2.0451287000905722,target,0.005060079973191023,None,3,001,2022_Oct_05_1915,Tutorial_3,2021.1.4,60.00078000210939,
143,0,143,0,10,287.27032899996266,None,287.27032899996266,None,0.4661458333333333,0.3541666666666667,1,0,0,1.9446086999960244,target,0.008785680052824318,None,3,001,2022_Oct_05_1915,Tutorial_3,2021.1.4,60.00078000210939,
144,0,144,0,10,289.30492979998235,None,289.30492979998235,None,0.2708333333333333,0.34375,1,0,0,1.6958006999921054,target,0.00688732007984072,None,3,001,2022_Oct_05_1915,Tutorial_3,2021.1.4,60.00078000210939,
145,0,145,0,5,291.0464995999355,None,291.0464995999355,None,0.4192708333333333,-0.17578125,1,0,0,1.6561465999111533,target,0.004295559949241579,None,3,001,2022_Oct_05_1915,Tutorial_3,2021.1.4,60.00078000210939,
146,0,146,0,10,292.7998378999764,None,292.7998378999764,None,-0.3489583333333333,0.14453125,1,0,0,1.8483642999781296,target,0.001233279937878251,None,3,001,2022_Oct_05_1915,Tutorial_3,2021.1.4,60.00078000210939,
147,0,147,0,5,294.6567903999239,None,294.6567903999239,None,-0.2890625,-0.08984375,1,0,0,1.855858499999158,target,0.0044860601192340255,None,3,001,2022_Oct_05_1915,Tutorial_3,2021.1.4,60.00078000210939,
148,0,148,0,5,296.56481539993547,None,296.56481539993547,None,0.2552083333333333,-0.33203125,1,0,0,1.3440807999577373,target,0.01603477995377034,None,3,001,2022_Oct_05_1915,Tutorial_3,2021.1.4,60.00078000210939,
149,0,149,0,5,297.96822069992777,None,297.96822069992777,None,0.4270833333333333,0.2604166666666667,1,0,0,1.3503488999558613,target,0.012417279882356524,None,3,001,2022_Oct_05_1915,Tutorial_3,2021.1.4,60.00078000210939,
150,0,150,0,5,299.3473782999208,None,299.3473782999208,None,0.23177083333333334,-0.15364583333333334,1,0,0,1.0153764999704435,target,0.0118633599486202,None,3,001,2022_Oct_05_1915,Tutorial_3,2021.1.4,60.00078000210939,
151,0,151,0,10,300.44213209999725,None,300.44213209999725,None,-0.3020833333333333,-0.07682291666666667,1,0,0,1.7021537000546232,target,0.0020585800521075726,None,3,001,2022_Oct_05_1915,Tutorial_3,2021.1.4,60.00078000210939,
152,0,152,0,10,302.2025623000227,None,302.2025623000227,None,-0.4778645833333333,-0.010416666666666666,1,0,0,1.6799213000340387,target,0.005748679977841675,None,3,001,2022_Oct_05_1915,Tutorial_3,2021.1.4,60.00078000210939,
153,0,153,0,5,303.90462759998627,None,303.90462759998627,None,0.0625,-0.4622395833333333,1,0,0,1.8947770999511704,target,0.0001302399905398488,None,3,001,2022_Oct_05_1915,Tutorial_3,2021.1.4,60.00078000210939,
154,0,154,0,5,305.8416602999205,None,305.8416602999205,None,0.4361979166666667,-0.057291666666666664,1,0,0,1.4205514000495896,target,0.003217959892936051,None,3,001,2022_Oct_05_1915,Tutorial_3,2021.1.4,60.00078000210939,
155,0,155,0,5,307.3295714999549,None,307.3295714999549,None,-0.16796875,0.4609375,1,0,0,2.3163860000204295,target,0.014163600048050284,None,3,001,2022_Oct_05_1915,Tutorial_3,2021.1.4,60.00078000210939,
156,0,156,0,10,309.727397199953,None,309.727397199953,None,0.22135416666666666,0.3450520833333333,1,0,0,1.316052099922672,target,0.016589900013059378,None,3,001,2022_Oct_05_1915,Tutorial_3,2021.1.4,60.00078000210939,
157,0,157,0,5,311.0747374999337,None,311.0747374999337,None,-0.4791666666666667,0.14583333333333334,1,0,0,1.3102323999628425,target,0.006040660082362592,None,3,001,2022_Oct_05_1915,Tutorial_3,2021.1.4,60.00078000210939,
158,0,158,0,5,312.4232503999956,None,312.4232503999956,None,-0.4348958333333333,0.08984375,1,0,0,1.5251707999268547,target,0.011020959937013686,None,3,001,2022_Oct_05_1915,Tutorial_3,2021.1.4,60.00078000210939,
159,0,159,0,10,314.0227096999297,None,314.0227096999297,None,0.045572916666666664,-0.3671875,1,0,0,1.4209352999459952,target,0.01022869988810271,None,3,001,2022_Oct_05_1915,Tutorial_3,2021.1.4,60.00078000210939,
160,0,160,0,5,315.4831333999755,None,315.4831333999755,None,0.18359375,0.20182291666666666,1,0,0,1.328440299956128,target,0.008426559972576797,None,3,001,2022_Oct_05_1915,Tutorial_3,2021.1.4,60.00078000210939,
161,0,161,0,5,316.8563327000011,None,316.8563327000011,None,-0.4544270833333333,0.2708333333333333,1,0,0,1.7301821999717504,target,0.007491360069252551,None,3,001,2022_Oct_05_1915,Tutorial_3,2021.1.4,60.00078000210939,
162,0,162,0,5,318.60805789998267,None,318.60805789998267,None,0.3971354166666667,0.06380208333333333,1,0,0,1.3759346000151709,target,0.002287440118379891,None,3,001,2022_Oct_05_1915,Tutorial_3,2021.1.4,60.00078000210939,
163,0,163,0,10,320.07373069995083,None,320.07373069995083,None,-0.41015625,0.4140625,1,0,0,2.560287700034678,target,0.0009919001022353768,None,3,001,2022_Oct_05_1915,Tutorial_3,2021.1.4,60.00078000210939,
164,0,164,0,10,322.6960264999652,None,322.6960264999652,None,0.13020833333333334,0.24348958333333334,1,0,0,1.2407352000009269,target,0.010603680042549968,None,3,001,2022_Oct_05_1915,Tutorial_3,2021.1.4,60.00078000210939,
165,0,165,0,5,323.9666111000115,None,323.9666111000115,None,0.13151041666666666,0.23958333333333334,1,0,0,0.8891172000439838,target,0.010905059985816479,None,3,001,2022_Oct_05_1915,Tutorial_3,2021.1.4,60.00078000210939,
166,0,166,0,10,324.9283632999286,None,324.9283632999286,None,-0.2942708333333333,-0.3111979166666667,1,0,0,1.8498909999616444,target,0.002432779874652624,None,3,001,2022_Oct_05_1915,Tutorial_3,2021.1.4,60.00078000210939,
167,0,167,0,5,326.7948182999389,None,326.7948182999389,None,-0.21875,-0.328125,1,0,0,1.2036146000027657,target,0.016673360019922256,None,3,001,2022_Oct_05_1915,Tutorial_3,2021.1.4,60.00078000210939,
168,0,168,0,10,328.0712358999299,None,328.0712358999299,None,-0.055989583333333336,0.04296875,1,0,0,1.6162207000888884,target,0.006692179944366217,None,3,001,2022_Oct_05_1915,Tutorial_3,2021.1.4,60.00078000210939,
169,0,169,0,5,329.7193142999895,None,329.7193142999895,None,-0.04296875,0.13802083333333334,1,0,0,1.4905627999687567,target,0.00952835998032242,None,3,001,2022_Oct_05_1915,Tutorial_3,2021.1.4,60.00078000210939,
170,0,170,0,5,331.24731020000763,None,331.24731020000763,None,-0.4778645833333333,0.3203125,1,0,0,1.571553700021468,target,0.01226355996914208,None,3,001,2022_Oct_05_1915,Tutorial_3,2021.1.4,60.00078000210939,
171,0,171,0,10,332.9058114999207,None,332.9058114999207,None,0.4270833333333333,0.061197916666666664,1,0,0,1.66431229992304,target,0.00812609982676804,None,3,001,2022_Oct_05_1915,Tutorial_3,2021.1.4,60.00078000210939,
172,0,172,0,10,334.59220479999203,None,334.59220479999203,None,0.3815104166666667,-0.2708333333333333,1,0,0,1.369182899943553,target,0.01361486001405865,None,3,001,2022_Oct_05_1915,Tutorial_3,2021.1.4,60.00078000210939,
173,0,173,0,10,336.03306609997526,None,336.03306609997526,None,-0.3697916666666667,0.33984375,1,0,0,1.831732099992223,target,0.0010161800310015678,None,3,001,2022_Oct_05_1915,Tutorial_3,2021.1.4,60.00078000210939,
174,0,174,0,5,337.8986417999258,None,337.8986417999258,None,-0.375,0.21614583333333334,1,0,0,1.376958500011824,target,0.009273759904317558,None,3,001,2022_Oct_05_1915,Tutorial_3,2021.1.4,60.00078000210939,
175,0,175,0,5,339.3327876999974,None,339.3327876999974,None,-0.3958333333333333,0.3098958333333333,1,0,0,1.0934939000289887,target,0.011150980019010603,None,3,001,2022_Oct_05_1915,Tutorial_3,2021.1.4,60.00078000210939,
176,0,176,0,10,340.51465569995344,None,340.51465569995344,None,-0.4348958333333333,0.17057291666666666,1,0,0,1.2243827000493184,target,0.009651319938711822,None,3,001,2022_Oct_05_1915,Tutorial_3,2021.1.4,60.00078000210939,
177,0,177,0,10,341.81528610002715,None,341.81528610002715,None,0.35546875,0.40625,1,0,0,1.560292800073512,target,0.014732699957676232,None,3,001,2022_Oct_05_1915,Tutorial_3,2021.1.4,60.00078000210939,
178,0,178,0,5,343.39500100002624,None,343.39500100002624,None,-0.15494791666666666,-0.22265625,1,0,0,1.777898499974981,target,0.013160360045731068,None,3,001,2022_Oct_05_1915,Tutorial_3,2021.1.4,60.00078000210939,
179,0,179,0,10,345.2508219999727,None,345.2508219999727,None,0.2942708333333333,-0.3932291666666667,1,0,0,2.2911089999834076,target,0.014349399833008647,None,3,001,2022_Oct_05_1915,Tutorial_3,2021.1.4,60.00078000210939,
180,0,180,0,5,347.5751934000291,None,347.5751934000291,None,-0.24348958333333334,0.09765625,1,0,0,2.0486967000178993,target,0.010527960024774075,None,3,001,2022_Oct_05_1915,Tutorial_3,2021.1.4,60.00078000210939,
181,0,181,0,5,349.6776629999513,None,349.6776629999513,None,-0.2994791666666667,0.052083333333333336,1,0,0,1.3610339999431744,target,0.01565978000871837,None,3,001,2022_Oct_05_1915,Tutorial_3,2021.1.4,60.00078000210939,
182,0,182,0,5,351.0766546999803,None,351.0766546999803,None,0.42578125,-0.053385416666666664,1,0,0,1.48098370002117,target,0.008429960114881396,None,3,001,2022_Oct_05_1915,Tutorial_3,2021.1.4,60.00078000210939,
183,0,183,0,10,352.6151222999906,None,352.6151222999906,None,0.41015625,0.48046875,1,0,0,2.7482658999506384,target,0.009009879897348583,None,3,001,2022_Oct_05_1915,Tutorial_3,2021.1.4,60.00078000210939,
184,0,184,0,5,355.3982524999883,None,355.3982524999883,None,-0.32421875,0.09505208333333333,1,0,0,1.9149187000002712,target,0.0077054600697010756,None,3,001,2022_Oct_05_1915,Tutorial_3,2021.1.4,60.00078000210939,
185,0,185,0,5,357.3692229000153,None,357.3692229000153,None,0.4010416666666667,-0.3111979166666667,1,0,0,2.130597100011073,target,0.011920280056074262,None,3,001,2022_Oct_05_1915,Tutorial_3,2021.1.4,60.00078000210939,
186,0,186,0,5,359.5398173999274,None,359.5398173999274,None,0.3828125,-0.3190104166666667,1,0,0,2.5504086000146344,target,0.011335660004988313,None,3,001,2022_Oct_05_1915,Tutorial_3,2021.1.4,60.00078000210939,
187,0,187,0,5,362.1314668999985,None,362.1314668999985,None,-0.2265625,0.3958333333333333,1,0,0,2.0436749999644235,target,0.008606359944678843,None,3,001,2022_Oct_05_1915,Tutorial_3,2021.1.4,60.00078000210939,
188,0,188,0,10,364.29164419998415,None,364.29164419998415,None,0.2643229166666667,-0.43359375,1,0,0,2.2553568999283016,target,0.01226764009334147,None,3,001,2022_Oct_05_1915,Tutorial_3,2021.1.4,60.00078000210939,
189,0,189,0,10,366.60037020000163,None,366.60037020000163,None,-0.16276041666666666,0.044270833333333336,1,0,0,1.4856152000138536,target,0.010941579937934875,None,3,001,2022_Oct_05_1915,Tutorial_3,2021.1.4,60.00078000210939,
190,0,190,0,5,368.11790850001853,None,368.11790850001853,None,0.37109375,0.4283854166666667,1,0,0,2.166690699988976,target,0.006686260108835995,None,3,001,2022_Oct_05_1915,Tutorial_3,2021.1.4,60.00078000210939,
191,0,191,0,10,370.37854289996903,None,370.37854289996903,None,0.3098958333333333,0.4466145833333333,1,0,0,2.2011413999134675,target,0.004646620131097734,None,3,001,2022_Oct_05_1915,Tutorial_3,2021.1.4,60.00078000210939,
192,0,192,0,5,372.61695890000556,None,372.61695890000556,None,0.02734375,-0.4140625,1,0,0,2.3999924999661744,target,0.01002486003562808,None,3,001,2022_Oct_05_1915,Tutorial_3,2021.1.4,60.00078000210939,
193,0,193,0,5,375.05702990002465,None,375.05702990002465,None,0.30078125,-0.024739583333333332,1,0,0,1.5704595000715926,target,0.009932760032825172,None,3,001,2022_Oct_05_1915,Tutorial_3,2021.1.4,60.00078000210939,
194,0,194,0,5,376.6776926999446,None,376.6776926999446,None,-0.26171875,0.19270833333333334,1,0,0,2.189811500022188,target,0.009020879864692688,None,3,001,2022_Oct_05_1915,Tutorial_3,2021.1.4,60.00078000210939,
195,0,195,0,10,378.95250110002235,None,378.95250110002235,None,-0.23177083333333334,0.4739583333333333,1,0,0,3.322839400032535,target,0.0124719999730587,None,3,001,2022_Oct_05_1915,Tutorial_3,2021.1.4,60.00078000210939,
196,0,196,0,10,382.34065679996274,None,382.34065679996274,None,0.4440104166666667,0.2109375,1,0,0,2.542006100062281,target,0.000978079973720014,None,3,001,2022_Oct_05_1915,Tutorial_3,2021.1.4,60.00078000210939,
197,0,197,0,5,384.9128145999275,None,384.9128145999275,None,-0.4127604166666667,-0.3619791666666667,1,0,0,1.8937935000285506,target,0.009165960014797747,None,3,001,2022_Oct_05_1915,Tutorial_3,2021.1.4,60.00078000210939,
198,0,198,0,10,386.89667149994057,None,386.89667149994057,None,-0.19270833333333334,0.421875,1,0,0,2.4974690000526607,target,0.009268700028769672,None,3,001,2022_Oct_05_1915,Tutorial_3,2021.1.4,60.00078000210939,
199,0,199,0,10,389.45083200000226,None,389.45083200000226,None,0.0859375,-0.2513020833333333,1,0,0,1.6750074999872595,target,0.002388379885815084,None,3,001,2022_Oct_05_1915,Tutorial_3,2021.1.4,60.00078000210939,
