loop.thisRepN,loop.thisTrialN,loop.thisN,loop.thisIndex,num_distr,fixation.started,fixation.stopped,target.started,target.stopped,mouse.x,mouse.y,mouse.leftButton,mouse.midButton,mouse.rightButton,mouse.time,mouse.clicked_name,mouse.started,mouse.stopped,participant,session,date,expName,psychopyVersion,frameRate,
0,0,0,0,10,15.460178300039843,None,15.460178300039843,None,0.046875,0.4609375,1,0,0,2.5747425999725237,target,0.014299980131909251,None,4,001,2022_Oct_05_1924,Tutorial_3,2021.1.4,60.032153200515516,
1,0,1,0,5,18.024206100031734,None,18.024206100031734,None,0.3697916666666667,0.05078125,1,0,0,1.600125199998729,target,0.009888030006550252,None,4,001,2022_Oct_05_1924,Tutorial_3,2021.1.4,60.032153200515516,
2,0,2,0,10,19.715680500026792,None,19.715680500026792,None,0.4817708333333333,-0.059895833333333336,1,0,0,1.2083654999732971,target,0.006450749933719635,None,4,001,2022_Oct_05_1924,Tutorial_3,2021.1.4,60.032153200515516,
3,0,3,0,5,20.92622600006871,None,20.92622600006871,None,0.2604166666666667,0.01171875,1,0,0,1.1283809000160545,target,0.00825151999015361,None,4,001,2022_Oct_05_1924,Tutorial_3,2021.1.4,60.032153200515516,
4,0,4,0,10,22.153832300100476,None,22.153832300100476,None,0.3684895833333333,-0.3567708333333333,1,0,0,2.180789200006984,target,0.009988749981857836,None,4,001,2022_Oct_05_1924,Tutorial_3,2021.1.4,60.032153200515516,
5,0,5,0,5,24.351981800049543,None,24.351981800049543,None,-0.009114583333333334,-0.3697916666666667,1,0,0,1.3354747999692336,target,0.010973830008879304,None,4,001,2022_Oct_05_1924,Tutorial_3,2021.1.4,60.032153200515516,
6,0,6,0,10,25.750019400031306,None,25.750019400031306,None,0.09375,0.4895833333333333,1,0,0,2.20608789997641,target,0.014371230034157634,None,4,001,2022_Oct_05_1924,Tutorial_3,2021.1.4,60.032153200515516,
7,0,7,0,10,27.996570000075735,None,27.996570000075735,None,0.33984375,-0.0390625,1,0,0,1.3680837999563664,target,0.006649140035733581,None,4,001,2022_Oct_05_1924,Tutorial_3,2021.1.4,60.032153200515516,
8,0,8,0,5,29.391529600019567,None,29.391529600019567,None,0.029947916666666668,0.3229166666666667,1,0,0,2.2848690000828356,target,0.012043730006553233,None,4,001,2022_Oct_05_1924,Tutorial_3,2021.1.4,60.032153200515516,
9,0,9,0,10,31.744547300040722,None,31.744547300040722,None,0.21744791666666666,-0.171875,1,0,0,1.5828781999880448,target,0.0007616400253027678,None,4,001,2022_Oct_05_1924,Tutorial_3,2021.1.4,60.032153200515516,
10,0,10,0,5,33.364850000012666,None,33.364850000012666,None,-0.10286458333333333,0.45703125,1,0,0,1.792857600026764,target,0.00555312994401902,None,4,001,2022_Oct_05_1924,Tutorial_3,2021.1.4,60.032153200515516,
11,0,11,0,10,35.22517810005229,None,35.22517810005229,None,0.26171875,-0.17057291666666666,1,0,0,1.3286676000570878,target,0.012398940045386553,None,4,001,2022_Oct_05_1924,Tutorial_3,2021.1.4,60.032153200515516,
12,0,12,0,10,36.611033000051975,None,36.611033000051975,None,0.4388020833333333,0.08463541666666667,1,0,0,1.1150589999742806,target,0.009610740002244711,None,4,001,2022_Oct_05_1924,Tutorial_3,2021.1.4,60.032153200515516,
13,0,13,0,5,37.752192400046624,None,37.752192400046624,None,0.3098958333333333,-0.20442708333333334,1,0,0,1.366621799999848,target,0.011599429999478161,None,4,001,2022_Oct_05_1924,Tutorial_3,2021.1.4,60.032153200515516,
14,0,14,0,10,39.20885250007268,None,39.20885250007268,None,-0.048177083333333336,0.1875,1,0,0,1.4011148000136018,target,0.009424549993127584,None,4,001,2022_Oct_05_1924,Tutorial_3,2021.1.4,60.032153200515516,
15,0,15,0,5,40.626085500000045,None,40.626085500000045,None,-0.17317708333333334,0.47265625,1,0,0,2.2554919000249356,target,0.01489193004090339,None,4,001,2022_Oct_05_1924,Tutorial_3,2021.1.4,60.032153200515516,
16,0,16,0,5,42.97213350003585,None,42.97213350003585,None,-0.14973958333333334,-0.2981770833333333,1,0,0,2.031573800020851,target,0.006898550083860755,None,4,001,2022_Oct_05_1924,Tutorial_3,2021.1.4,60.032153200515516,
17,0,17,0,5,45.02423420001287,None,45.02423420001287,None,0.3138020833333333,-0.2526041666666667,1,0,0,1.2744691000552848,target,0.009222630062140524,None,4,001,2022_Oct_05_1924,Tutorial_3,2021.1.4,60.032153200515516,
18,0,18,0,5,46.35350930003915,None,46.35350930003915,None,0.13411458333333334,0.20703125,1,0,0,1.4760801999364048,target,0.002887230133637786,None,4,001,2022_Oct_05_1924,Tutorial_3,2021.1.4,60.032153200515516,
19,0,19,0,10,47.88066460005939,None,47.88066460005939,None,0.2109375,0.23307291666666666,1,0,0,1.8909364000428468,target,0.011791740078479052,None,4,001,2022_Oct_05_1924,Tutorial_3,2021.1.4,60.032153200515516,
20,0,20,0,5,49.81031800003257,None,49.81031800003257,None,-0.3372395833333333,-0.22916666666666666,1,0,0,1.9977428999263793,target,0.009871429996564984,None,4,001,2022_Oct_05_1924,Tutorial_3,2021.1.4,60.032153200515516,
21,0,21,0,5,51.85218160005752,None,51.85218160005752,None,0.033854166666666664,-0.032552083333333336,1,0,0,1.768349100020714,target,0.006501030060462654,None,4,001,2022_Oct_05_1924,Tutorial_3,2021.1.4,60.032153200515516,
22,0,22,0,10,53.72168509999756,None,53.72168509999756,None,0.4947916666666667,0.4049479166666667,1,0,0,1.4519857000559568,target,0.013697560061700642,None,4,001,2022_Oct_05_1924,Tutorial_3,2021.1.4,60.032153200515516,
23,0,23,0,10,55.22799680009484,None,55.22799680009484,None,0.016927083333333332,0.044270833333333336,1,0,0,1.5110087000066414,target,0.0038537400541827083,None,4,001,2022_Oct_05_1924,Tutorial_3,2021.1.4,60.032153200515516,
24,0,24,0,5,56.77198700001463,None,56.77198700001463,None,-0.31640625,0.12760416666666666,1,0,0,1.8335633999668062,target,0.0066497300285845995,None,4,001,2022_Oct_05_1924,Tutorial_3,2021.1.4,60.032153200515516,
25,0,25,0,5,58.65663640003186,None,58.65663640003186,None,0.2421875,-0.3815104166666667,1,0,0,2.236226200009696,target,0.002639629994519055,None,4,001,2022_Oct_05_1924,Tutorial_3,2021.1.4,60.032153200515516,
26,0,26,0,5,60.9375122000929,None,60.9375122000929,None,0.44921875,0.2643229166666667,1,0,0,1.7966579999774694,target,0.013961940188892186,None,4,001,2022_Oct_05_1924,Tutorial_3,2021.1.4,60.032153200515516,
27,0,27,0,10,62.811426800093614,None,62.811426800093614,None,-0.11328125,-0.37890625,1,0,0,1.9247190000023693,target,0.0038621400017291307,None,4,001,2022_Oct_05_1924,Tutorial_3,2021.1.4,60.032153200515516,
28,0,28,0,10,64.77222350006923,None,64.77222350006923,None,0.4856770833333333,-0.07552083333333333,1,0,0,1.6519960999721661,target,0.01667994004674256,None,4,001,2022_Oct_05_1924,Tutorial_3,2021.1.4,60.032153200515516,
29,0,29,0,10,66.48212170007173,None,66.48212170007173,None,0.4765625,0.022135416666666668,1,0,0,1.110376000055112,target,0.010723139974288642,None,4,001,2022_Oct_05_1924,Tutorial_3,2021.1.4,60.032153200515516,
30,0,30,0,10,67.65743610006757,None,67.65743610006757,None,0.17057291666666666,-0.23177083333333334,1,0,0,1.667276700027287,target,0.004058440099470317,None,4,001,2022_Oct_05_1924,Tutorial_3,2021.1.4,60.032153200515516,
31,0,31,0,5,69.37432699999772,None,69.37432699999772,None,0.4765625,0.421875,1,0,0,1.5953993999864906,target,0.00044303014874458313,None,4,001,2022_Oct_05_1924,Tutorial_3,2021.1.4,60.032153200515516,
32,0,32,0,5,71.0120427000802,None,71.0120427000802,None,0.3125,0.3984375,1,0,0,1.0950746000744402,target,0.015528040006756783,None,4,001,2022_Oct_05_1924,Tutorial_3,2021.1.4,60.032153200515516,
33,0,33,0,5,72.15695690002758,None,72.15695690002758,None,0.265625,-0.13020833333333334,1,0,0,1.3338893000036478,target,0.014254640089347959,None,4,001,2022_Oct_05_1924,Tutorial_3,2021.1.4,60.032153200515516,
34,0,34,0,10,73.55316410004161,None,73.55316410004161,None,0.037760416666666664,0.17708333333333334,1,0,0,1.4062465999741107,target,0.007111240061931312,None,4,001,2022_Oct_05_1924,Tutorial_3,2021.1.4,60.032153200515516,
35,0,35,0,10,75.03131120000035,None,75.03131120000035,None,-0.3802083333333333,-0.4036458333333333,1,0,0,2.026533400057815,target,0.005843440070748329,None,4,001,2022_Oct_05_1924,Tutorial_3,2021.1.4,60.032153200515516,
36,0,36,0,5,77.08305770007428,None,77.08305770007428,None,0.3072916666666667,-0.3723958333333333,1,0,0,1.7677790999878198,target,0.011200829991139472,None,4,001,2022_Oct_05_1924,Tutorial_3,2021.1.4,60.032153200515516,
37,0,37,0,5,78.90172870003153,None,78.90172870003153,None,0.48828125,-0.3697916666666667,1,0,0,1.0906735999742523,target,0.0008238301379606128,None,4,001,2022_Oct_05_1924,Tutorial_3,2021.1.4,60.032153200515516,
38,0,38,0,10,80.07540540001355,None,80.07540540001355,None,0.3776041666666667,0.4661458333333333,1,0,0,3.361524200066924,target,0.0075593499932438135,None,4,001,2022_Oct_05_1924,Tutorial_3,2021.1.4,60.032153200515516,
39,0,39,0,5,83.4618723000167,None,83.4618723000167,None,0.01953125,-0.22265625,1,0,0,1.1596911000087857,target,0.010908930096775293,None,4,001,2022_Oct_05_1924,Tutorial_3,2021.1.4,60.032153200515516,
40,0,40,0,10,84.71932660008315,None,84.71932660008315,None,0.46484375,0.4322916666666667,1,0,0,1.4726239000447094,target,0.0018302500247955322,None,4,001,2022_Oct_05_1924,Tutorial_3,2021.1.4,60.032153200515516,
41,0,41,0,5,86.21566350001376,None,86.21566350001376,None,-0.4908854166666667,0.46875,1,0,0,2.3616104000248015,target,0.011106529971584678,None,4,001,2022_Oct_05_1924,Tutorial_3,2021.1.4,60.032153200515516,
42,0,42,0,5,88.61338470003102,None,88.61338470003102,None,0.12630208333333334,0.22395833333333334,1,0,0,1.5481434999965131,target,0.01394963008351624,None,4,001,2022_Oct_05_1924,Tutorial_3,2021.1.4,60.032153200515516,
43,0,43,0,5,90.19939010008238,None,90.19939010008238,None,0.23828125,0.15885416666666666,1,0,0,1.4876291999826208,target,0.007358730188570917,None,4,001,2022_Oct_05_1924,Tutorial_3,2021.1.4,60.032153200515516,
44,0,44,0,10,91.76188710005954,None,91.76188710005954,None,-0.3151041666666667,0.34375,1,0,0,2.318265700014308,target,0.004963840125128627,None,4,001,2022_Oct_05_1924,Tutorial_3,2021.1.4,60.032153200515516,
45,0,45,0,5,94.10952220007312,None,94.10952220007312,None,-0.15364583333333334,0.4375,1,0,0,1.6632740999339148,target,0.010173629969358444,None,4,001,2022_Oct_05_1924,Tutorial_3,2021.1.4,60.032153200515516,
46,0,46,0,10,95.89257450005971,None,95.89257450005971,None,0.26171875,0.22395833333333334,1,0,0,2.681783500011079,target,0.014307780074886978,None,4,001,2022_Oct_05_1924,Tutorial_3,2021.1.4,60.032153200515516,
47,0,47,0,10,98.6230306000216,None,98.6230306000216,None,-0.10416666666666667,0.2630208333333333,1,0,0,2.3523510999511927,target,0.015500640030950308,None,4,001,2022_Oct_05_1924,Tutorial_3,2021.1.4,60.032153200515516,
48,0,48,0,10,101.03637930005789,None,101.03637930005789,None,-0.31640625,0.04296875,1,0,0,1.4813199000200257,target,0.00883593992330134,None,4,001,2022_Oct_05_1924,Tutorial_3,2021.1.4,60.032153200515516,
49,0,49,0,10,102.588699700078,None,102.588699700078,None,0.07552083333333333,0.3684895833333333,1,0,0,2.643261400051415,target,0.004043040098622441,None,4,001,2022_Oct_05_1924,Tutorial_3,2021.1.4,60.032153200515516,
50,0,50,0,10,105.28668540006038,None,105.28668540006038,None,-0.15104166666666666,0.24739583333333334,1,0,0,1.4723547999747097,target,0.006953440140932798,None,4,001,2022_Oct_05_1924,Tutorial_3,2021.1.4,60.032153200515516,
51,0,51,0,5,106.79031210008543,None,106.79031210008543,None,0.17317708333333334,0.296875,1,0,0,1.1905502000590786,target,0.008997130091302097,None,4,001,2022_Oct_05_1924,Tutorial_3,2021.1.4,60.032153200515516,
52,0,52,0,10,108.05808540002909,None,108.05808540002909,None,0.2708333333333333,0.35546875,1,0,0,1.7379239000147209,target,0.0054454500786960125,None,4,001,2022_Oct_05_1924,Tutorial_3,2021.1.4,60.032153200515516,
53,0,53,0,5,109.8300898000598,None,109.8300898000598,None,0.37890625,-0.12630208333333334,1,0,0,1.65407100005541,target,0.012233130168169737,None,4,001,2022_Oct_05_1924,Tutorial_3,2021.1.4,60.032153200515516,
54,0,54,0,10,111.5569048000034,None,111.5569048000034,None,-0.11197916666666667,0.19270833333333334,1,0,0,2.2403648999752477,target,0.0014870399609208107,None,4,001,2022_Oct_05_1924,Tutorial_3,2021.1.4,60.032153200515516,
55,0,55,0,10,113.85846950009,None,113.85846950009,None,-0.3125,-0.07291666666666667,1,0,0,1.544622299959883,target,0.0075395399471744895,None,4,001,2022_Oct_05_1924,Tutorial_3,2021.1.4,60.032153200515516,
56,0,56,0,10,115.43425230006687,None,115.43425230006687,None,-0.4895833333333333,-0.19791666666666666,1,0,0,2.309937800047919,target,0.009022630052641034,None,4,001,2022_Oct_05_1924,Tutorial_3,2021.1.4,60.032153200515516,
57,0,57,0,5,117.7742675000336,None,117.7742675000336,None,-0.25390625,0.4309895833333333,1,0,0,3.009131000027992,target,0.014368130126968026,None,4,001,2022_Oct_05_1924,Tutorial_3,2021.1.4,60.032153200515516,
58,0,58,0,5,120.84106810006779,None,120.84106810006779,None,0.20833333333333334,0.4010416666666667,1,0,0,1.0368557999609038,target,0.013412139960564673,None,4,001,2022_Oct_05_1924,Tutorial_3,2021.1.4,60.032153200515516,
59,0,59,0,10,121.9420021000551,None,121.9420021000551,None,-0.2109375,-0.3268229166666667,1,0,0,1.6288846998941153,target,0.005873340065591037,None,4,001,2022_Oct_05_1924,Tutorial_3,2021.1.4,60.032153200515516,
60,0,60,0,10,123.63348900002893,None,123.63348900002893,None,0.08723958333333333,-0.029947916666666668,1,0,0,0.8838636000873521,target,0.005036040092818439,None,4,001,2022_Oct_05_1924,Tutorial_3,2021.1.4,60.032153200515516,
61,0,61,0,10,124.57446520007215,None,124.57446520007215,None,0.34375,0.2786458333333333,1,0,0,1.0810726000927389,target,0.006938740028999746,None,4,001,2022_Oct_05_1924,Tutorial_3,2021.1.4,60.032153200515516,
62,0,62,0,10,125.73179059999529,None,125.73179059999529,None,-0.02734375,0.4453125,1,0,0,1.5679341000504792,target,0.01441475993487984,None,4,001,2022_Oct_05_1924,Tutorial_3,2021.1.4,60.032153200515516,
63,0,63,0,5,127.34764530009124,None,127.34764530009124,None,-0.3151041666666667,0.17057291666666666,1,0,0,1.2081938999472186,target,0.015246339957229793,None,4,001,2022_Oct_05_1924,Tutorial_3,2021.1.4,60.032153200515516,
64,0,64,0,10,128.66120209998917,None,128.66120209998917,None,0.0013020833333333333,0.2526041666666667,1,0,0,1.2099738999968395,target,0.001181859988719225,None,4,001,2022_Oct_05_1924,Tutorial_3,2021.1.4,60.032153200515516,
65,0,65,0,10,129.9566613000352,None,129.9566613000352,None,-0.13411458333333334,-0.20572916666666666,1,0,0,2.103898699977435,target,0.005383359966799617,None,4,001,2022_Oct_05_1924,Tutorial_3,2021.1.4,60.032153200515516,
66,0,66,0,5,132.10086870007217,None,132.10086870007217,None,-0.4895833333333333,0.4388020833333333,1,0,0,2.814424299984239,target,0.009940630057826638,None,4,001,2022_Oct_05_1924,Tutorial_3,2021.1.4,60.032153200515516,
67,0,67,0,5,134.96678820007946,None,134.96678820007946,None,-0.3958333333333333,-0.30078125,1,0,0,2.8009492999408394,target,0.0013594299089163542,None,4,001,2022_Oct_05_1924,Tutorial_3,2021.1.4,60.032153200515516,
68,0,68,0,10,137.82805460004602,None,137.82805460004602,None,0.421875,-0.3567708333333333,1,0,0,2.188953600008972,target,0.016024649958126247,None,4,001,2022_Oct_05_1924,Tutorial_3,2021.1.4,60.032153200515516,
69,0,69,0,10,140.09198610007297,None,140.09198610007297,None,-0.14322916666666666,-0.3294270833333333,1,0,0,1.060306700062938,target,0.0011094399960711598,None,4,001,2022_Oct_05_1924,Tutorial_3,2021.1.4,60.032153200515516,
70,0,70,0,5,141.16779199999291,None,141.16779199999291,None,-0.08854166666666667,0.21484375,1,0,0,1.8573659000685439,target,0.001167220063507557,None,4,001,2022_Oct_05_1924,Tutorial_3,2021.1.4,60.032153200515516,
71,0,71,0,5,143.0712904999964,None,143.0712904999964,None,0.12630208333333334,0.328125,1,0,0,1.2046780000673607,target,0.010473430040292442,None,4,001,2022_Oct_05_1924,Tutorial_3,2021.1.4,60.032153200515516,
72,0,72,0,5,144.3068202000577,None,144.3068202000577,None,-0.2942708333333333,-0.17057291666666666,1,0,0,1.664278500014916,target,0.010892430087551475,None,4,001,2022_Oct_05_1924,Tutorial_3,2021.1.4,60.032153200515516,
73,0,73,0,10,146.03240850009024,None,146.03240850009024,None,0.19661458333333334,-0.010416666666666666,1,0,0,1.300039800000377,target,0.011354240006767213,None,4,001,2022_Oct_05_1924,Tutorial_3,2021.1.4,60.032153200515516,
74,0,74,0,10,147.3892121000681,None,147.3892121000681,None,0.09244791666666667,0.171875,1,0,0,0.9734253999777138,target,0.007838540012016892,None,4,001,2022_Oct_05_1924,Tutorial_3,2021.1.4,60.032153200515516,
75,0,75,0,10,148.40356850007083,None,148.40356850007083,None,-0.09375,0.044270833333333336,1,0,0,1.2477155000669882,target,0.00743472995236516,None,4,001,2022_Oct_05_1924,Tutorial_3,2021.1.4,60.032153200515516,
76,0,76,0,10,149.7146632000804,None,149.7146632000804,None,-0.26171875,-0.22916666666666666,1,0,0,1.5203738000709563,target,0.0033025400480255485,None,4,001,2022_Oct_05_1924,Tutorial_3,2021.1.4,60.032153200515516,
77,0,77,0,10,151.30077380000148,None,151.30077380000148,None,0.11197916666666667,0.23697916666666666,1,0,0,1.467890900094062,target,0.008715240051969886,None,4,001,2022_Oct_05_1924,Tutorial_3,2021.1.4,60.032153200515516,
78,0,78,0,5,152.79656580009032,None,152.79656580009032,None,0.078125,0.2565104166666667,1,0,0,0.8018361000576988,target,0.011764530092477798,None,4,001,2022_Oct_05_1924,Tutorial_3,2021.1.4,60.032153200515516,
79,0,79,0,5,153.67555789998733,None,153.67555789998733,None,0.19140625,-0.3658854166666667,1,0,0,1.647487899987027,target,0.01568654994480312,None,4,001,2022_Oct_05_1924,Tutorial_3,2021.1.4,60.032153200515516,
80,0,80,0,5,155.353110200027,None,155.353110200027,None,0.11588541666666667,0.0026041666666666665,1,0,0,1.000708199921064,target,0.008051829994656146,None,4,001,2022_Oct_05_1924,Tutorial_3,2021.1.4,60.032153200515516,
81,0,81,0,5,156.3917448000284,None,156.3917448000284,None,0.18489583333333334,0.16796875,1,0,0,1.1475101000396535,target,0.01234642998315394,None,4,001,2022_Oct_05_1924,Tutorial_3,2021.1.4,60.032153200515516,
82,0,82,0,10,157.61360230005812,None,157.61360230005812,None,-0.3658854166666667,0.37890625,1,0,0,2.4004658000776544,target,0.009751549921929836,None,4,001,2022_Oct_05_1924,Tutorial_3,2021.1.4,60.032153200515516,
83,0,83,0,5,160.04836780007463,None,160.04836780007463,None,-0.15104166666666666,-0.10416666666666667,1,0,0,1.4753941000672057,target,0.0072634301614016294,None,4,001,2022_Oct_05_1924,Tutorial_3,2021.1.4,60.032153200515516,
84,0,84,0,5,161.55392590002157,None,161.55392590002157,None,-0.2877604166666667,-0.3515625,1,0,0,1.1122907999670133,target,0.0014329199912026525,None,4,001,2022_Oct_05_1924,Tutorial_3,2021.1.4,60.032153200515516,
85,0,85,0,5,162.73135710007045,None,162.73135710007045,None,0.11328125,0.3528645833333333,1,0,0,1.904359000036493,target,0.00978843995835632,None,4,001,2022_Oct_05_1924,Tutorial_3,2021.1.4,60.032153200515516,
86,0,86,0,10,164.69013830006588,None,164.69013830006588,None,0.06510416666666667,-0.057291666666666664,1,0,0,1.4002234999788925,target,0.006923740031197667,None,4,001,2022_Oct_05_1924,Tutorial_3,2021.1.4,60.032153200515516,
87,0,87,0,5,166.1323023000732,None,166.1323023000732,None,0.3828125,-0.39453125,1,0,0,2.044728600070812,target,0.008243330172263086,None,4,001,2022_Oct_05_1924,Tutorial_3,2021.1.4,60.032153200515516,
88,0,88,0,5,168.239163500024,None,168.239163500024,None,-0.4088541666666667,0.2838541666666667,1,0,0,1.4763275000732392,target,0.006065839901566505,None,4,001,2022_Oct_05_1924,Tutorial_3,2021.1.4,60.032153200515516,
89,0,89,0,10,169.79513179999776,None,169.79513179999776,None,0.0703125,0.23177083333333334,1,0,0,1.2613675999455154,target,0.0007333500543609262,None,4,001,2022_Oct_05_1924,Tutorial_3,2021.1.4,60.032153200515516,
90,0,90,0,10,171.11971750005614,None,171.11971750005614,None,0.2721354166666667,0.4505208333333333,1,0,0,1.2476594999898225,target,0.01118273998145014,None,4,001,2022_Oct_05_1924,Tutorial_3,2021.1.4,60.032153200515516,
91,0,91,0,5,172.3933952000225,None,172.3933952000225,None,-0.09244791666666667,0.17708333333333334,1,0,0,1.21780059998855,target,0.012705130036920309,None,4,001,2022_Oct_05_1924,Tutorial_3,2021.1.4,60.032153200515516,
92,0,92,0,5,173.64908060000744,None,173.64908060000744,None,0.20703125,0.046875,1,0,0,1.107309399987571,target,0.010371230076998472,None,4,001,2022_Oct_05_1924,Tutorial_3,2021.1.4,60.032153200515516,
93,0,93,0,5,174.81192300003022,None,174.81192300003022,None,0.21484375,0.3111979166666667,1,0,0,1.1973405999597162,target,0.01273683994077146,None,4,001,2022_Oct_05_1924,Tutorial_3,2021.1.4,60.032153200515516,
94,0,94,0,10,176.07849049998913,None,176.07849049998913,None,0.24479166666666666,-0.15494791666666666,1,0,0,1.247132399934344,target,0.016378049971535802,None,4,001,2022_Oct_05_1924,Tutorial_3,2021.1.4,60.032153200515516,
95,0,95,0,10,177.37413390004076,None,177.37413390004076,None,0.07291666666666667,-0.421875,1,0,0,3.880191099946387,,0.011827239883132279,None,4,001,2022_Oct_05_1924,Tutorial_3,2021.1.4,60.032153200515516,
96,0,96,0,5,181.2869710000232,None,181.2869710000232,None,0.4010416666666667,-0.11458333333333333,1,0,0,1.9164355000248179,target,0.011252430034801364,None,4,001,2022_Oct_05_1924,Tutorial_3,2021.1.4,60.032153200515516,
97,0,97,0,10,183.24867580004502,None,183.24867580004502,None,0.3033854166666667,-0.14192708333333334,1,0,0,1.4920856000389904,target,0.010659530060365796,None,4,001,2022_Oct_05_1924,Tutorial_3,2021.1.4,60.032153200515516,
98,0,98,0,10,184.78659630008042,None,184.78659630008042,None,0.140625,-0.2630208333333333,1,0,0,1.472863100003451,target,0.002385930041782558,None,4,001,2022_Oct_05_1924,Tutorial_3,2021.1.4,60.032153200515516,
99,0,99,0,10,186.33586009999271,None,186.33586009999271,None,0.21744791666666666,-0.4283854166666667,1,0,0,1.3501550999935716,target,0.004859740030951798,None,4,001,2022_Oct_05_1924,Tutorial_3,2021.1.4,60.032153200515516,
100,0,100,0,10,187.73822659999132,None,187.73822659999132,None,-0.4088541666666667,-0.4778645833333333,1,0,0,2.1963502999860793,target,0.007324739941395819,None,4,001,2022_Oct_05_1924,Tutorial_3,2021.1.4,60.032153200515516,
101,0,101,0,5,189.9514737999998,None,189.9514737999998,None,-0.3658854166666667,-0.15104166666666666,1,0,0,1.3503511000890285,target,0.00018312002066522837,None,4,001,2022_Oct_05_1924,Tutorial_3,2021.1.4,60.032153200515516,
102,0,102,0,10,191.36819700000342,None,191.36819700000342,None,0.4205729166666667,0.22526041666666666,1,0,0,2.375352600007318,target,0.0060239400481805205,None,4,001,2022_Oct_05_1924,Tutorial_3,2021.1.4,60.032153200515516,
103,0,103,0,5,193.78266080003232,None,193.78266080003232,None,0.359375,-0.30859375,1,0,0,1.4132048999890685,target,0.008759230142459273,None,4,001,2022_Oct_05_1924,Tutorial_3,2021.1.4,60.032153200515516,
104,0,104,0,5,195.25209920003545,None,195.25209920003545,None,0.4010416666666667,-0.12239583333333333,1,0,0,1.4801844999892637,target,0.014948440017178655,None,4,001,2022_Oct_05_1924,Tutorial_3,2021.1.4,60.032153200515516,
105,0,105,0,5,196.7734908000566,None,196.7734908000566,None,0.4713541666666667,0.12760416666666666,1,0,0,1.2451140000484884,target,0.016409240080974996,None,4,001,2022_Oct_05_1924,Tutorial_3,2021.1.4,60.032153200515516,
106,0,106,0,5,198.06942710001022,None,198.06942710001022,None,-0.2526041666666667,-0.4348958333333333,1,0,0,1.9018582000862807,target,0.0036320299841463566,None,4,001,2022_Oct_05_1924,Tutorial_3,2021.1.4,60.032153200515516,
107,0,107,0,10,200.06424480001442,None,200.06424480001442,None,0.3020833333333333,0.4322916666666667,1,0,0,1.7994957000482827,target,0.005769459996372461,None,4,001,2022_Oct_05_1924,Tutorial_3,2021.1.4,60.032153200515516,
108,0,108,0,10,201.93078420008533,None,201.93078420008533,None,0.2643229166666667,-0.040364583333333336,1,0,0,1.0841917999787256,target,0.007022939971648157,None,4,001,2022_Oct_05_1924,Tutorial_3,2021.1.4,60.032153200515516,
109,0,109,0,10,203.0808585000923,None,203.0808585000923,None,0.47265625,0.2747395833333333,1,0,0,1.4673318999120966,target,0.012933249934576452,None,4,001,2022_Oct_05_1924,Tutorial_3,2021.1.4,60.032153200515516,
110,0,110,0,10,204.59887220000383,None,204.59887220000383,None,-0.2669270833333333,-0.26171875,1,0,0,1.5819570999592543,target,0.011501040076836944,None,4,001,2022_Oct_05_1924,Tutorial_3,2021.1.4,60.032153200515516,
111,0,111,0,10,206.25096179998945,None,206.25096179998945,None,0.20572916666666666,0.14453125,1,0,0,1.0449960000114515,target,0.0016813400434330106,None,4,001,2022_Oct_05_1924,Tutorial_3,2021.1.4,60.032153200515516,
112,0,112,0,10,207.34809780004434,None,207.34809780004434,None,0.2591145833333333,0.23828125,1,0,0,1.3706526999594644,target,0.0065799400908872485,None,4,001,2022_Oct_05_1924,Tutorial_3,2021.1.4,60.032153200515516,
113,0,113,0,10,208.8082300000824,None,208.8082300000824,None,0.4752604166666667,-0.38671875,1,0,0,1.867289699963294,target,0.007834050105884671,None,4,001,2022_Oct_05_1924,Tutorial_3,2021.1.4,60.032153200515516,
114,0,114,0,5,210.67857670004014,None,210.67857670004014,None,0.17447916666666666,-0.4856770833333333,1,0,0,1.8003653000341728,target,0.007681919960305095,None,4,001,2022_Oct_05_1924,Tutorial_3,2021.1.4,60.032153200515516,
115,0,115,0,5,212.52528830000665,None,212.52528830000665,None,0.24609375,-0.16536458333333334,1,0,0,1.2182592999888584,target,0.007899730000644922,None,4,001,2022_Oct_05_1924,Tutorial_3,2021.1.4,60.032153200515516,
116,0,116,0,5,213.78935239999555,None,213.78935239999555,None,0.3033854166666667,0.109375,1,0,0,1.2249544000951573,target,0.006269830046221614,None,4,001,2022_Oct_05_1924,Tutorial_3,2021.1.4,60.032153200515516,
117,0,117,0,5,215.05056540004443,None,215.05056540004443,None,0.08333333333333333,0.4348958333333333,1,0,0,2.0262670000083745,target,0.005882130120880902,None,4,001,2022_Oct_05_1924,Tutorial_3,2021.1.4,60.032153200515516,
118,0,118,0,10,217.15060570009518,None,217.15060570009518,None,-0.4973958333333333,0.4713541666666667,1,0,0,3.6712030000053346,target,0.01577685005031526,None,4,001,2022_Oct_05_1924,Tutorial_3,2021.1.4,60.032153200515516,
119,0,119,0,5,220.8440367000876,None,220.8440367000876,None,-0.4635416666666667,-0.028645833333333332,1,0,0,1.5603524000616744,target,0.0025966200046241283,None,4,001,2022_Oct_05_1924,Tutorial_3,2021.1.4,60.032153200515516,
120,0,120,0,10,222.4847165000392,None,222.4847165000392,None,0.2916666666666667,0.4361979166666667,1,0,0,2.04439060005825,target,0.01112894993275404,None,4,001,2022_Oct_05_1924,Tutorial_3,2021.1.4,60.032153200515516,
121,0,121,0,10,224.57929000002332,None,224.57929000002332,None,-0.3684895833333333,-0.049479166666666664,1,0,0,2.0416069000493735,target,0.012903940049000084,None,4,001,2022_Oct_05_1924,Tutorial_3,2021.1.4,60.032153200515516,
122,0,122,0,10,226.67302029998973,None,226.67302029998973,None,0.4856770833333333,-0.3828125,1,0,0,1.6248735000845045,target,0.004026830079965293,None,4,001,2022_Oct_05_1924,Tutorial_3,2021.1.4,60.032153200515516,
123,0,123,0,10,228.3636882000137,None,228.3636882000137,None,-0.2578125,0.12760416666666666,1,0,0,1.625544200069271,target,0.0018898400012403727,None,4,001,2022_Oct_05_1924,Tutorial_3,2021.1.4,60.032153200515516,
124,0,124,0,5,230.0122041000286,None,230.0122041000286,None,-0.43359375,0.09895833333333333,1,0,0,1.2158393999561667,target,0.010730529902502894,None,4,001,2022_Oct_05_1924,Tutorial_3,2021.1.4,60.032153200515516,
125,0,125,0,5,231.28124939999543,None,231.28124939999543,None,0.3307291666666667,0.21614583333333334,1,0,0,1.1633401999715716,target,0.01409393991343677,None,4,001,2022_Oct_05_1924,Tutorial_3,2021.1.4,60.032153200515516,
126,0,126,0,10,232.53685180004686,None,232.53685180004686,None,-0.3059895833333333,0.01953125,1,0,0,1.0762082999572158,target,0.010520360083319247,None,4,001,2022_Oct_05_1924,Tutorial_3,2021.1.4,60.032153200515516,
127,0,127,0,5,233.63540010002907,None,233.63540010002907,None,0.4765625,0.4752604166666667,1,0,0,1.5965964999049902,target,0.002783019794151187,None,4,001,2022_Oct_05_1924,Tutorial_3,2021.1.4,60.032153200515516,
128,0,128,0,10,235.30477819999214,None,235.30477819999214,None,-0.3997395833333333,0.09114583333333333,1,0,0,1.5195965999737382,target,0.005068839993327856,None,4,001,2022_Oct_05_1924,Tutorial_3,2021.1.4,60.032153200515516,
129,0,129,0,10,236.89175300009083,None,236.89175300009083,None,0.4713541666666667,-0.08203125,1,0,0,1.045220399973914,target,0.0047883400693535805,None,4,001,2022_Oct_05_1924,Tutorial_3,2021.1.4,60.032153200515516,
130,0,130,0,5,237.96722140000202,None,237.96722140000202,None,0.24609375,0.3489583333333333,1,0,0,1.3299899999983609,target,0.006567330099642277,None,4,001,2022_Oct_05_1924,Tutorial_3,2021.1.4,60.032153200515516,
131,0,131,0,10,239.3892935999902,None,239.3892935999902,None,0.09114583333333333,0.18359375,1,0,0,1.1693581999279559,target,0.009039259981364012,None,4,001,2022_Oct_05_1924,Tutorial_3,2021.1.4,60.032153200515516,
132,0,132,0,10,240.6088788000634,None,240.6088788000634,None,-0.21614583333333334,-0.09375,1,0,0,1.4438739001052454,target,0.014013340114615858,None,4,001,2022_Oct_05_1924,Tutorial_3,2021.1.4,60.032153200515516,
133,0,133,0,10,242.09559220005758,None,242.09559220005758,None,-0.2916666666666667,-0.3385416666666667,1,0,0,2.066837100079283,target,0.007434130064211786,None,4,001,2022_Oct_05_1924,Tutorial_3,2021.1.4,60.032153200515516,
134,0,134,0,5,244.19932740007062,None,244.19932740007062,None,-0.052083333333333336,0.19401041666666666,1,0,0,1.2056714999489486,target,0.012460430152714252,None,4,001,2022_Oct_05_1924,Tutorial_3,2021.1.4,60.032153200515516,
135,0,135,0,10,245.49713860009797,None,245.49713860009797,None,-0.15234375,0.2265625,1,0,0,1.4364875999744982,target,0.006115059950388968,None,4,001,2022_Oct_05_1924,Tutorial_3,2021.1.4,60.032153200515516,
136,0,136,0,5,246.96983320009895,None,246.96983320009895,None,0.14192708333333334,0.20182291666666666,1,0,0,1.0038944999687374,target,0.012240329990163445,None,4,001,2022_Oct_05_1924,Tutorial_3,2021.1.4,60.032153200515516,
137,0,137,0,5,248.0159003000008,None,248.0159003000008,None,-0.4049479166666667,0.0625,1,0,0,1.4935300999786705,target,0.0015707301208749413,None,4,001,2022_Oct_05_1924,Tutorial_3,2021.1.4,60.032153200515516,
138,0,138,0,10,249.58224330004305,None,249.58224330004305,None,0.3463541666666667,-0.13411458333333334,1,0,0,1.5025543000083417,target,0.016237250063568354,None,4,001,2022_Oct_05_1924,Tutorial_3,2021.1.4,60.032153200515516,
139,0,139,0,10,251.14101610006765,None,251.14101610006765,None,-0.109375,0.26171875,1,0,0,1.5343557000160217,target,0.008843940100632608,None,4,001,2022_Oct_05_1924,Tutorial_3,2021.1.4,60.032153200515516,
140,0,140,0,10,252.74105640000198,None,252.74105640000198,None,0.26953125,0.23697916666666666,1,0,0,1.1678214999847114,target,0.009768840041942894,None,4,001,2022_Oct_05_1924,Tutorial_3,2021.1.4,60.032153200515516,
141,0,141,0,5,253.9237562000053,None,253.9237562000053,None,-0.08984375,0.2526041666666667,1,0,0,1.2429568000370637,target,0.004391020047478378,None,4,001,2022_Oct_05_1924,Tutorial_3,2021.1.4,60.032153200515516,
142,0,142,0,5,255.2083367999876,None,255.2083367999876,None,-0.2552083333333333,-0.19401041666666666,1,0,0,1.248017800040543,target,0.010415430064313114,None,4,001,2022_Oct_05_1924,Tutorial_3,2021.1.4,60.032153200515516,
143,0,143,0,5,256.5073395000072,None,256.5073395000072,None,0.12630208333333334,0.4596354166666667,1,0,0,2.1499316999688745,target,0.014265540055930614,None,4,001,2022_Oct_05_1924,Tutorial_3,2021.1.4,60.032153200515516,
144,0,144,0,5,258.70059900009073,None,258.70059900009073,None,0.4036458333333333,-0.47265625,1,0,0,1.5976082000415772,target,0.0018486300250515342,None,4,001,2022_Oct_05_1924,Tutorial_3,2021.1.4,60.032153200515516,
145,0,145,0,5,260.3423872999847,None,260.3423872999847,None,0.17317708333333334,0.12760416666666666,1,0,0,1.1266906999517232,target,0.00867823010776192,None,4,001,2022_Oct_05_1924,Tutorial_3,2021.1.4,60.032153200515516,
146,0,146,0,10,261.52316680003423,None,261.52316680003423,None,-0.14192708333333334,0.2604166666666667,1,0,0,2.0881199999712408,target,0.012594540021382272,None,4,001,2022_Oct_05_1924,Tutorial_3,2021.1.4,60.032153200515516,
147,0,147,0,5,263.64910460007377,None,263.64910460007377,None,0.3567708333333333,0.2421875,1,0,0,1.1431045999052003,target,0.01135403010994196,None,4,001,2022_Oct_05_1924,Tutorial_3,2021.1.4,60.032153200515516,
148,0,148,0,10,264.88467130006757,None,264.88467130006757,None,-0.3072916666666667,-0.3190104166666667,1,0,0,1.8498277999460697,target,0.0059434500290080905,None,4,001,2022_Oct_05_1924,Tutorial_3,2021.1.4,60.032153200515516,
149,0,149,0,10,266.80344500008505,None,266.80344500008505,None,0.3763020833333333,0.2552083333333333,1,0,0,1.3534883999964222,target,0.004416349926032126,None,4,001,2022_Oct_05_1924,Tutorial_3,2021.1.4,60.032153200515516,
150,0,150,0,10,268.22185430000536,None,268.22185430000536,None,0.21354166666666666,0.032552083333333336,1,0,0,1.608511499944143,target,0.003332239924930036,None,4,001,2022_Oct_05_1924,Tutorial_3,2021.1.4,60.032153200515516,
151,0,151,0,10,269.9191146000521,None,269.9191146000521,None,-0.022135416666666668,-0.037760416666666664,1,0,0,1.1473893999354914,,0.005005550105124712,None,4,001,2022_Oct_05_1924,Tutorial_3,2021.1.4,60.032153200515516,
152,0,152,0,5,271.0827901000157,None,271.0827901000157,None,-0.02734375,0.3489583333333333,1,0,0,1.9030886000255123,target,0.011620430159382522,None,4,001,2022_Oct_05_1924,Tutorial_3,2021.1.4,60.032153200515516,
153,0,153,0,10,273.06209640007,None,273.06209640007,None,0.15364583333333334,-0.015625,1,0,0,1.2132233999436721,target,0.004968240042217076,None,4,001,2022_Oct_05_1924,Tutorial_3,2021.1.4,60.032153200515516,
154,0,154,0,10,274.32159639999736,None,274.32159639999736,None,-0.11197916666666667,0.0026041666666666665,1,0,0,1.3351984999608248,target,0.006169640109874308,None,4,001,2022_Oct_05_1924,Tutorial_3,2021.1.4,60.032153200515516,
155,0,155,0,5,275.6942860999843,None,275.6942860999843,None,0.21875,0.06640625,1,0,0,1.251722100074403,target,0.010445930063724518,None,4,001,2022_Oct_05_1924,Tutorial_3,2021.1.4,60.032153200515516,
156,0,156,0,10,277.03330360003747,None,277.03330360003747,None,-0.4283854166666667,0.3919270833333333,1,0,0,2.132885100087151,target,0.009445050032809377,None,4,001,2022_Oct_05_1924,Tutorial_3,2021.1.4,60.032153200515516,
157,0,157,0,5,279.1880835000193,None,279.1880835000193,None,-0.0703125,0.2265625,1,0,0,1.1675001999828964,target,0.012414030032232404,None,4,001,2022_Oct_05_1924,Tutorial_3,2021.1.4,60.032153200515516,
158,0,158,0,10,280.4328406000277,None,280.4328406000277,None,0.09895833333333333,-0.09114583333333333,1,0,0,1.4434836000436917,target,0.010816949885338545,None,4,001,2022_Oct_05_1924,Tutorial_3,2021.1.4,60.032153200515516,
159,0,159,0,10,281.9376193000935,None,281.9376193000935,None,-0.1171875,0.08333333333333333,1,0,0,1.1787496999604627,target,0.008379040053114295,None,4,001,2022_Oct_05_1924,Tutorial_3,2021.1.4,60.032153200515516,
160,0,160,0,5,283.1483474000124,None,283.1483474000124,None,-0.4388020833333333,-0.2708333333333333,1,0,0,1.6805701000848785,target,0.007176330080255866,None,4,001,2022_Oct_05_1924,Tutorial_3,2021.1.4,60.032153200515516,
161,0,161,0,5,284.85454600001685,None,284.85454600001685,None,0.0013020833333333333,-0.016927083333333332,1,0,0,1.5131931999931112,target,0.0024742200039327145,None,4,001,2022_Oct_05_1924,Tutorial_3,2021.1.4,60.032153200515516,
162,0,162,0,10,286.4566075000912,None,286.4566075000912,None,-0.049479166666666664,-0.20052083333333334,1,0,0,1.4730735999764875,target,0.008813549997285008,None,4,001,2022_Oct_05_1924,Tutorial_3,2021.1.4,60.032153200515516,
163,0,163,0,5,287.95694160007406,None,287.95694160007406,None,0.014322916666666666,0.2643229166666667,1,0,0,1.2419967999449,target,0.009881330071948469,None,4,001,2022_Oct_05_1924,Tutorial_3,2021.1.4,60.032153200515516,
164,0,164,0,10,289.2839946000604,None,289.2839946000604,None,0.3515625,0.3932291666666667,1,0,0,1.465436700033024,target,0.008941549924202263,None,4,001,2022_Oct_05_1924,Tutorial_3,2021.1.4,60.032153200515516,
165,0,165,0,5,290.7785665000556,None,290.7785665000556,None,0.18098958333333334,0.3541666666666667,1,0,0,0.9411246000090614,target,0.009438730077818036,None,4,001,2022_Oct_05_1924,Tutorial_3,2021.1.4,60.032153200515516,
166,0,166,0,10,291.79334430000745,None,291.79334430000745,None,0.11328125,0.2916666666666667,1,0,0,1.1707693999633193,target,0.01249644998461008,None,4,001,2022_Oct_05_1924,Tutorial_3,2021.1.4,60.032153200515516,
167,0,167,0,10,293.01474310003687,None,293.01474310003687,None,-0.06380208333333333,-0.3216145833333333,1,0,0,1.6306486999383196,target,0.010930140037089586,None,4,001,2022_Oct_05_1924,Tutorial_3,2021.1.4,60.032153200515516,
168,0,168,0,10,294.70140100002754,None,294.70140100002754,None,-0.39453125,-0.2838541666666667,1,0,0,2.8842059000162408,,0.008932740078307688,None,4,001,2022_Oct_05_1924,Tutorial_3,2021.1.4,60.032153200515516,
169,0,169,0,10,297.6474714000942,None,297.6474714000942,None,0.057291666666666664,0.34765625,1,0,0,1.9745911998907104,target,0.013439839938655496,None,4,001,2022_Oct_05_1924,Tutorial_3,2021.1.4,60.032153200515516,
170,0,170,0,10,299.6824985999847,None,299.6824985999847,None,0.014322916666666666,0.2604166666666667,1,0,0,0.9406096999300644,target,0.006417140015400946,None,4,001,2022_Oct_05_1924,Tutorial_3,2021.1.4,60.032153200515516,
171,0,171,0,5,300.63797909999266,None,300.63797909999266,None,0.3255208333333333,-0.12630208333333334,1,0,0,1.020092000020668,target,0.007037619943730533,None,4,001,2022_Oct_05_1924,Tutorial_3,2021.1.4,60.032153200515516,
172,0,172,0,5,301.7083800000837,None,301.7083800000837,None,-0.3580729166666667,0.3854166666666667,1,0,0,1.576960200094618,target,0.0013844299828633666,None,4,001,2022_Oct_05_1924,Tutorial_3,2021.1.4,60.032153200515516,
173,0,173,0,5,303.32843100000173,None,303.32843100000173,None,-0.10807291666666667,0.3515625,1,0,0,1.0770536999916658,target,0.0005788300186395645,None,4,001,2022_Oct_05_1924,Tutorial_3,2021.1.4,60.032153200515516,
174,0,174,0,5,304.45058390009217,None,304.45058390009217,None,0.2721354166666667,-0.08723958333333333,1,0,0,1.2709294999949634,target,0.00825702992733568,None,4,001,2022_Oct_05_1924,Tutorial_3,2021.1.4,60.032153200515516,
175,0,175,0,5,305.7387948000105,None,305.7387948000105,None,0.3033854166666667,0.22786458333333334,1,0,0,1.4696872999193147,target,0.008270019898191094,None,4,001,2022_Oct_05_1924,Tutorial_3,2021.1.4,60.032153200515516,
176,0,176,0,10,307.280331499991,None,307.280331499991,None,0.17708333333333334,0.2552083333333333,1,0,0,0.9181267999811098,target,0.0006107399240136147,None,4,001,2022_Oct_05_1924,Tutorial_3,2021.1.4,60.032153200515516,
177,0,177,0,10,308.26713270007167,None,308.26713270007167,None,-0.39453125,0.3997395833333333,1,0,0,3.0879526999779046,target,0.0019501399947330356,None,4,001,2022_Oct_05_1924,Tutorial_3,2021.1.4,60.032153200515516,
178,0,178,0,10,311.4408687000396,None,311.4408687000396,None,-0.44140625,-0.01953125,1,0,0,1.3482059999369085,target,0.008274659980088472,None,4,001,2022_Oct_05_1924,Tutorial_3,2021.1.4,60.032153200515516,
179,0,179,0,5,312.8267787999939,None,312.8267787999939,None,0.36328125,0.020833333333333332,1,0,0,1.9215334000764415,target,0.011344630038365722,None,4,001,2022_Oct_05_1924,Tutorial_3,2021.1.4,60.032153200515516,
180,0,180,0,5,314.79748940002173,None,314.79748940002173,None,0.4075520833333333,0.16536458333333334,1,0,0,1.3011357999639586,target,0.0036526299081742764,None,4,001,2022_Oct_05_1924,Tutorial_3,2021.1.4,60.032153200515516,
181,0,181,0,5,316.1690502000274,None,316.1690502000274,None,-0.22526041666666666,0.3372395833333333,1,0,0,1.7283775999676436,target,0.0015313400654122233,None,4,001,2022_Oct_05_1924,Tutorial_3,2021.1.4,60.032153200515516,
182,0,182,0,10,317.96418000000995,None,317.96418000000995,None,-0.0026041666666666665,-0.3541666666666667,1,0,0,1.6020915999542922,target,0.01647795003373176,None,4,001,2022_Oct_05_1924,Tutorial_3,2021.1.4,60.032153200515516,
183,0,183,0,5,319.6016722000204,None,319.6016722000204,None,-0.20833333333333334,-0.041666666666666664,1,0,0,1.320093399961479,target,0.003944530035369098,None,4,001,2022_Oct_05_1924,Tutorial_3,2021.1.4,60.032153200515516,
184,0,184,0,10,321.0083070000401,None,321.0083070000401,None,0.16276041666666666,0.3177083333333333,1,0,0,1.9757507999893278,target,0.01336275995709002,None,4,001,2022_Oct_05_1924,Tutorial_3,2021.1.4,60.032153200515516,
185,0,185,0,5,323.0257572000846,None,323.0257572000846,None,-0.4895833333333333,0.16796875,1,0,0,1.5235033000353724,target,0.007322630030103028,None,4,001,2022_Oct_05_1924,Tutorial_3,2021.1.4,60.032153200515516,
186,0,186,0,5,324.5853680000873,None,324.5853680000873,None,-0.4244791666666667,0.2877604166666667,1,0,0,1.633758099982515,target,0.011432730010710657,None,4,001,2022_Oct_05_1924,Tutorial_3,2021.1.4,60.032153200515516,
187,0,187,0,5,326.24161590007134,None,326.24161590007134,None,-0.20833333333333334,-0.048177083333333336,1,0,0,1.3160002999939024,target,0.003102419781498611,None,4,001,2022_Oct_05_1924,Tutorial_3,2021.1.4,60.032153200515516,
188,0,188,0,10,327.6323038000846,None,327.6323038000846,None,-0.4557291666666667,0.44921875,1,0,0,1.69667199999094,target,0.007052239961922169,None,4,001,2022_Oct_05_1924,Tutorial_3,2021.1.4,60.032153200515516,
189,0,189,0,10,329.3845074001001,None,329.3845074001001,None,-0.24479166666666666,0.21744791666666666,1,0,0,1.8896980999270454,target,0.005793140036985278,None,4,001,2022_Oct_05_1924,Tutorial_3,2021.1.4,60.032153200515516,
190,0,190,0,10,331.33596840000246,None,331.33596840000246,None,0.14583333333333334,-0.4088541666666667,1,0,0,2.2198699999134988,target,0.006520039984025061,None,4,001,2022_Oct_05_1924,Tutorial_3,2021.1.4,60.032153200515516,
191,0,191,0,10,333.62869290006347,None,333.62869290006347,None,0.29296875,0.01171875,1,0,0,1.4611109000397846,target,0.013361050048843026,None,4,001,2022_Oct_05_1924,Tutorial_3,2021.1.4,60.032153200515516,
192,0,192,0,10,335.1354688000865,None,335.1354688000865,None,-0.4752604166666667,0.3841145833333333,1,0,0,2.501638500019908,target,0.002426830120384693,None,4,001,2022_Oct_05_1924,Tutorial_3,2021.1.4,60.032153200515516,
193,0,193,0,5,337.65471690008417,None,337.65471690008417,None,-0.20052083333333334,-0.22005208333333334,1,0,0,1.8240999999688938,target,0.002199919894337654,None,4,001,2022_Oct_05_1924,Tutorial_3,2021.1.4,60.032153200515516,
194,0,194,0,10,339.54439600009937,None,339.54439600009937,None,0.296875,-0.14713541666666666,1,0,0,1.9574497999856248,target,0.0057456400245428085,None,4,001,2022_Oct_05_1924,Tutorial_3,2021.1.4,60.032153200515516,
195,0,195,0,10,341.57978820009157,None,341.57978820009157,None,-0.17317708333333334,-0.4440104166666667,1,0,0,2.3302976998966187,target,0.00909764994867146,None,4,001,2022_Oct_05_1924,Tutorial_3,2021.1.4,60.032153200515516,
196,0,196,0,5,343.9462896999903,None,343.9462896999903,None,-0.19010416666666666,-0.3776041666666667,1,0,0,1.2395534999668598,target,0.006092530209571123,None,4,001,2022_Oct_05_1924,Tutorial_3,2021.1.4,60.032153200515516,
197,0,197,0,5,345.26194370002486,None,345.26194370002486,None,0.03515625,-0.13802083333333334,1,0,0,1.5449245000490919,target,0.001640940085053444,None,4,001,2022_Oct_05_1924,Tutorial_3,2021.1.4,60.032153200515516,
198,0,198,0,10,346.8800603999989,None,346.8800603999989,None,-0.34375,0.14453125,1,0,0,2.1359201000304893,target,0.010042650043033063,None,4,001,2022_Oct_05_1924,Tutorial_3,2021.1.4,60.032153200515516,
199,0,199,0,10,349.08456099999603,None,349.08456099999603,None,0.0013020833333333333,0.3815104166666667,1,0,0,1.5390825000358745,target,0.0054850500309839845,None,4,001,2022_Oct_05_1924,Tutorial_3,2021.1.4,60.032153200515516,
