loop.thisRepN,loop.thisTrialN,loop.thisN,loop.thisIndex,num_distr,fixation.started,fixation.stopped,target.started,target.stopped,mouse.x,mouse.y,mouse.leftButton,mouse.midButton,mouse.rightButton,mouse.time,mouse.clicked_name,mouse.started,mouse.stopped,participant,session,date,expName,psychopyVersion,frameRate,
0,0,0,0,10,12.567023399984464,None,12.567023399984464,None,0.3151041666666667,-0.3463541666666667,1,0,0,2.921461599995382,target,0.0036931599024683237,None,,001,2022_Oct_05_1952,Tutorial_3,2021.1.4,59.96217585068236,
1,0,1,0,10,15.488218200043775,None,15.488218200043775,None,-0.0026041666666666665,-0.4140625,1,0,0,2.5356606000568718,target,0.011356179951690137,None,,001,2022_Oct_05_1952,Tutorial_3,2021.1.4,59.96217585068236,
2,0,2,0,10,18.08572929992806,None,18.08572929992806,None,-0.0390625,-0.07552083333333333,1,0,0,2.7225426000077277,target,0.007523679989390075,None,,001,2022_Oct_05_1952,Tutorial_3,2021.1.4,59.96217585068236,
3,0,3,0,10,20.844363400014117,None,20.844363400014117,None,0.11979166666666667,0.3203125,1,0,0,1.452947499928996,target,0.011703360010869801,None,,001,2022_Oct_05_1952,Tutorial_3,2021.1.4,59.96217585068236,
4,0,4,0,5,22.333442599978298,None,22.333442599978298,None,-0.4401041666666667,0.3828125,1,0,0,1.6282796999439597,target,0.010577859939076006,None,,001,2022_Oct_05_1952,Tutorial_3,2021.1.4,59.96217585068236,
5,0,5,0,5,24.00013499998022,None,24.00013499998022,None,-0.16536458333333334,0.17838541666666666,1,0,0,1.8486948000499979,target,0.012363960151560605,None,,001,2022_Oct_05_1952,Tutorial_3,2021.1.4,59.96217585068236,
6,0,6,0,10,25.91669450001791,None,25.91669450001791,None,-0.23177083333333334,-0.045572916666666664,1,0,0,1.7653746999567375,target,0.006744679994881153,None,,001,2022_Oct_05_1952,Tutorial_3,2021.1.4,59.96217585068236,
7,0,7,0,5,27.712055500014685,None,27.712055500014685,None,-0.3697916666666667,-0.296875,1,0,0,2.671981399995275,target,0.006583460024558008,None,,001,2022_Oct_05_1952,Tutorial_3,2021.1.4,59.96217585068236,
8,0,8,0,10,30.456373999943025,None,30.456373999943025,None,-0.4856770833333333,0.4778645833333333,1,0,0,3.0700284999329597,target,0.015070099965669215,None,,001,2022_Oct_05_1952,Tutorial_3,2021.1.4,59.96217585068236,
9,0,9,0,10,33.5805102000013,None,33.5805102000013,None,0.4010416666666667,-0.055989583333333336,1,0,0,2.6252272001001984,target,0.012195080053061247,None,,001,2022_Oct_05_1952,Tutorial_3,2021.1.4,59.96217585068236,
10,0,10,0,5,36.23625910002738,None,36.23625910002738,None,0.14322916666666666,0.029947916666666668,1,0,0,1.038862399989739,target,0.010270159924402833,None,,001,2022_Oct_05_1952,Tutorial_3,2021.1.4,59.96217585068236,
11,0,11,0,10,37.347367199952714,None,37.347367199952714,None,0.2864583333333333,0.0546875,1,0,0,0.9240382999414578,target,0.008112179930321872,None,,001,2022_Oct_05_1952,Tutorial_3,2021.1.4,59.96217585068236,
12,0,12,0,5,38.31015159992967,None,38.31015159992967,None,-0.3385416666666667,0.053385416666666664,1,0,0,1.580930200056173,target,0.011518479906953871,None,,001,2022_Oct_05_1952,Tutorial_3,2021.1.4,59.96217585068236,
13,0,13,0,10,39.9641417999519,None,39.9641417999519,None,-0.21875,0.3971354166666667,1,0,0,1.3962833000114188,target,0.00779407995287329,None,,001,2022_Oct_05_1952,Tutorial_3,2021.1.4,59.96217585068236,
14,0,14,0,10,41.410414499929175,None,41.410414499929175,None,0.37890625,0.4518229166666667,1,0,0,2.7320953001035377,,0.010929479962214828,None,,001,2022_Oct_05_1952,Tutorial_3,2021.1.4,59.96217585068236,
15,0,15,0,5,44.1769212000072,None,44.1769212000072,None,-0.17578125,0.2734375,1,0,0,1.0587982999859378,target,0.010378660052083433,None,,001,2022_Oct_05_1952,Tutorial_3,2021.1.4,59.96217585068236,
16,0,16,0,5,45.294121099985205,None,45.294121099985205,None,0.4296875,0.053385416666666664,1,0,0,1.1155736000509933,target,0.0016297800466418266,None,,001,2022_Oct_05_1952,Tutorial_3,2021.1.4,59.96217585068236,
17,0,17,0,10,46.47785699996166,None,46.47785699996166,None,0.42578125,-0.14713541666666666,1,0,0,3.7690136999590322,target,0.0019277799874544144,None,,001,2022_Oct_05_1952,Tutorial_3,2021.1.4,59.96217585068236,
18,0,18,0,5,50.287808699999005,None,50.287808699999005,None,0.4361979166666667,-0.21875,1,0,0,1.098875500028953,target,0.009455360006541014,None,,001,2022_Oct_05_1952,Tutorial_3,2021.1.4,59.96217585068236,
19,0,19,0,10,51.476451899972744,None,51.476451899972744,None,-0.057291666666666664,-0.3880208333333333,1,0,0,2.68080860003829,target,0.01233382010832429,None,,001,2022_Oct_05_1952,Tutorial_3,2021.1.4,59.96217585068236,
20,0,20,0,10,54.2139011999825,None,54.2139011999825,None,0.390625,0.005208333333333333,1,0,0,2.4676209000172094,target,0.007252980023622513,None,,001,2022_Oct_05_1952,Tutorial_3,2021.1.4,59.96217585068236,
21,0,21,0,5,56.73578620003536,None,56.73578620003536,None,0.1953125,0.140625,1,0,0,1.5233832999365404,target,0.005129580036737025,None,,001,2022_Oct_05_1952,Tutorial_3,2021.1.4,59.96217585068236,
22,0,22,0,10,58.33913350000512,None,58.33913350000512,None,-0.4049479166666667,0.07942708333333333,1,0,0,1.922944899997674,target,0.01100039982702583,None,,001,2022_Oct_05_1952,Tutorial_3,2021.1.4,59.96217585068236,
23,0,23,0,10,60.32496749993879,None,60.32496749993879,None,0.0625,0.33984375,1,0,0,2.4728542999364436,target,0.016662999987602234,None,,001,2022_Oct_05_1952,Tutorial_3,2021.1.4,59.96217585068236,
24,0,24,0,10,62.85754180001095,None,62.85754180001095,None,-0.2786458333333333,0.4713541666666667,1,0,0,2.707657399936579,target,0.010887979879043996,None,,001,2022_Oct_05_1952,Tutorial_3,2021.1.4,59.96217585068236,
25,0,25,0,10,65.60728440003004,None,65.60728440003004,None,-0.3059895833333333,-0.061197916666666664,1,0,0,1.983543899958022,target,0.002038659993559122,None,,001,2022_Oct_05_1952,Tutorial_3,2021.1.4,59.96217585068236,
26,0,26,0,10,67.64084639993962,None,67.64084639993962,None,0.4453125,0.22526041666666666,1,0,0,2.4411172999534756,target,0.015991479973308742,None,,001,2022_Oct_05_1952,Tutorial_3,2021.1.4,59.96217585068236,
27,0,27,0,10,70.14019429998007,None,70.14019429998007,None,0.4036458333333333,0.3567708333333333,1,0,0,1.549000500002876,target,0.014692080090753734,None,,001,2022_Oct_05_1952,Tutorial_3,2021.1.4,59.96217585068236,
28,0,28,0,5,71.69768380001187,None,71.69768380001187,None,0.4375,-0.4322916666666667,1,0,0,1.7684639999642968,target,0.010616040090098977,None,,001,2022_Oct_05_1952,Tutorial_3,2021.1.4,59.96217585068236,
29,0,29,0,10,73.56575609999709,None,73.56575609999709,None,-0.17838541666666666,0.12239583333333333,1,0,0,4.723309899913147,target,0.00629172008484602,None,,001,2022_Oct_05_1952,Tutorial_3,2021.1.4,59.96217585068236,
30,0,30,0,5,78.31513470003847,None,78.31513470003847,None,0.3919270833333333,0.2421875,1,0,0,1.1726300000445917,target,0.016518060117959976,None,,001,2022_Oct_05_1952,Tutorial_3,2021.1.4,59.96217585068236,
31,0,31,0,10,79.54816160001792,None,79.54816160001792,None,0.07161458333333333,0.20572916666666666,1,0,0,1.068063099985011,target,0.012171279871836305,None,,001,2022_Oct_05_1952,Tutorial_3,2021.1.4,59.96217585068236,
32,0,32,0,10,80.67746699997224,None,80.67746699997224,None,0.022135416666666668,-0.3893229166666667,1,0,0,1.9732729999814183,target,0.0064046799670904875,None,,001,2022_Oct_05_1952,Tutorial_3,2021.1.4,59.96217585068236,
33,0,33,0,10,82.71430500003044,None,82.71430500003044,None,0.12890625,-0.18359375,1,0,0,2.5033853000495583,target,0.009262180072255433,None,,001,2022_Oct_05_1952,Tutorial_3,2021.1.4,59.96217585068236,
34,0,34,0,5,85.22682730003726,None,85.22682730003726,None,0.4765625,-0.06640625,1,0,0,1.6676319999387488,target,0.007839340018108487,None,,001,2022_Oct_05_1952,Tutorial_3,2021.1.4,59.96217585068236,
35,0,35,0,5,86.9466610000236,None,86.9466610000236,None,0.4375,-0.17578125,1,0,0,1.1403677999041975,target,0.0019964599050581455,None,,001,2022_Oct_05_1952,Tutorial_3,2021.1.4,59.96217585068236,
36,0,36,0,10,88.13224960002117,None,88.13224960002117,None,-0.3658854166666667,0.3736979166666667,1,0,0,2.382694200030528,target,0.0032559599494561553,None,,001,2022_Oct_05_1952,Tutorial_3,2021.1.4,59.96217585068236,
37,0,37,0,10,90.5739418999292,None,90.5739418999292,None,-0.037760416666666664,-0.3541666666666667,1,0,0,2.4725563999963924,target,0.011831579962745309,None,,001,2022_Oct_05_1952,Tutorial_3,2021.1.4,59.96217585068236,
38,0,38,0,10,93.14611850003712,None,93.14611850003712,None,-0.15364583333333334,-0.15494791666666666,1,0,0,1.3494793000863865,target,0.013646139879710972,None,,001,2022_Oct_05_1952,Tutorial_3,2021.1.4,59.96217585068236,
39,0,39,0,10,94.55672660004348,None,94.55672660004348,None,0.3723958333333333,0.1171875,1,0,0,1.7338194999611005,target,0.00937937991693616,None,,001,2022_Oct_05_1952,Tutorial_3,2021.1.4,59.96217585068236,
40,0,40,0,5,96.32092149998061,None,96.32092149998061,None,-0.30078125,0.17447916666666666,1,0,0,2.146331200026907,target,0.008713260060176253,None,,001,2022_Oct_05_1952,Tutorial_3,2021.1.4,59.96217585068236,
41,0,41,0,10,98.52413259993773,None,98.52413259993773,None,-0.25,-0.3776041666666667,1,0,0,1.4425259000854567,target,0.0111481798812747,None,,001,2022_Oct_05_1952,Tutorial_3,2021.1.4,59.96217585068236,
42,0,42,0,10,100.03608290001284,None,100.03608290001284,None,-0.18359375,0.3828125,1,0,0,1.6368043000111356,target,0.003592379856854677,None,,001,2022_Oct_05_1952,Tutorial_3,2021.1.4,59.96217585068236,
43,0,43,0,5,101.70269720000215,None,101.70269720000215,None,0.23828125,0.026041666666666668,1,0,0,2.471435600076802,target,0.011596859898418188,None,,001,2022_Oct_05_1952,Tutorial_3,2021.1.4,59.96217585068236,
44,0,44,0,5,104.22210819995962,None,104.22210819995962,None,-0.4153645833333333,0.11067708333333333,1,0,0,1.1747013999847695,target,0.0032861600629985332,None,,001,2022_Oct_05_1952,Tutorial_3,2021.1.4,59.96217585068236,
45,0,45,0,10,105.45533309993334,None,105.45533309993334,None,-0.2825520833333333,0.11458333333333333,1,0,0,1.0686148999957368,target,0.012387280003167689,None,,001,2022_Oct_05_1952,Tutorial_3,2021.1.4,59.96217585068236,
46,0,46,0,5,106.55022249999456,None,106.55022249999456,None,0.4010416666666667,0.4114583333333333,1,0,0,1.1867630999768153,target,0.009750159922987223,None,,001,2022_Oct_05_1952,Tutorial_3,2021.1.4,59.96217585068236,
47,0,47,0,10,107.80197289993521,None,107.80197289993521,None,0.15494791666666666,0.13020833333333334,1,0,0,2.922865299973637,target,0.01147008000407368,None,,001,2022_Oct_05_1952,Tutorial_3,2021.1.4,59.96217585068236,
48,0,48,0,10,110.78348740004003,None,110.78348740004003,None,-0.16276041666666666,-0.08984375,1,0,0,3.8487665000138804,target,0.010701979976147413,None,,001,2022_Oct_05_1952,Tutorial_3,2021.1.4,59.96217585068236,
49,0,49,0,10,114.69160769996233,None,114.69160769996233,None,-0.3138020833333333,-0.2604166666666667,1,0,0,4.289994899998419,target,0.00889627996366471,None,,001,2022_Oct_05_1952,Tutorial_3,2021.1.4,59.96217585068236,
50,0,50,0,10,119.00946890003979,None,119.00946890003979,None,0.3697916666666667,0.4583333333333333,1,0,0,2.8051771000027657,target,0.010720760095864534,None,,001,2022_Oct_05_1952,Tutorial_3,2021.1.4,59.96217585068236,
51,0,51,0,5,121.85240360000171,None,121.85240360000171,None,0.3919270833333333,0.41796875,1,0,0,2.3186068000504747,target,0.011858260026201606,None,,001,2022_Oct_05_1952,Tutorial_3,2021.1.4,59.96217585068236,
52,0,52,0,10,124.23275119997561,None,124.23275119997561,None,-0.3333333333333333,0.3450520833333333,1,0,0,2.1217821000609547,target,0.003757780068553984,None,,001,2022_Oct_05_1952,Tutorial_3,2021.1.4,59.96217585068236,
53,0,53,0,5,126.38182070001494,None,126.38182070001494,None,0.25390625,-0.453125,1,0,0,2.1174151999875903,target,0.014585960074327886,None,,001,2022_Oct_05_1952,Tutorial_3,2021.1.4,59.96217585068236,
54,0,54,0,5,128.54192019999027,None,128.54192019999027,None,-0.4674479166666667,-0.049479166666666664,1,0,0,1.7265213000355288,target,0.009244460030458868,None,,001,2022_Oct_05_1952,Tutorial_3,2021.1.4,59.96217585068236,
55,0,55,0,5,130.3142181999283,None,130.3142181999283,None,-0.13411458333333334,-0.421875,1,0,0,1.6253619000781327,target,0.007695360109210014,None,,001,2022_Oct_05_1952,Tutorial_3,2021.1.4,59.96217585068236,
56,0,56,0,5,131.97825209994335,None,131.97825209994335,None,-0.09244791666666667,0.061197916666666664,1,0,0,1.3326659000013024,target,0.011333759990520775,None,,001,2022_Oct_05_1952,Tutorial_3,2021.1.4,59.96217585068236,
57,0,57,0,10,133.38567079999484,None,133.38567079999484,None,-0.059895833333333336,0.33203125,1,0,0,1.200250199995935,target,0.006955999997444451,None,,001,2022_Oct_05_1952,Tutorial_3,2021.1.4,59.96217585068236,
58,0,58,0,5,134.623285699985,None,134.623285699985,None,-0.12760416666666666,-0.3020833333333333,1,0,0,1.6069979999447241,target,0.010910660028457642,None,,001,2022_Oct_05_1952,Tutorial_3,2021.1.4,59.96217585068236,
59,0,59,0,10,136.29262910003308,None,136.29262910003308,None,0.25,-0.13541666666666666,1,0,0,1.9235024999361485,target,0.0037672799080610275,None,,001,2022_Oct_05_1952,Tutorial_3,2021.1.4,59.96217585068236,
60,0,60,0,5,138.26143589999992,None,138.26143589999992,None,-0.23177083333333334,-0.11197916666666667,1,0,0,2.098451199941337,target,0.004799559945240617,None,,001,2022_Oct_05_1952,Tutorial_3,2021.1.4,59.96217585068236,
61,0,61,0,10,140.44280059996527,None,140.44280059996527,None,-0.0859375,0.21354166666666666,1,0,0,1.5045004000421613,target,0.0022060000337660313,None,,001,2022_Oct_05_1952,Tutorial_3,2021.1.4,59.96217585068236,
62,0,62,0,10,142.01404579996597,None,142.01404579996597,None,0.0546875,0.3736979166666667,1,0,0,1.834268599981442,target,0.006405079970136285,None,,001,2022_Oct_05_1952,Tutorial_3,2021.1.4,59.96217585068236,
63,0,63,0,5,143.8987199999392,None,143.8987199999392,None,-0.4947916666666667,-0.0078125,1,0,0,3.415133800008334,target,0.015705399913713336,None,,001,2022_Oct_05_1952,Tutorial_3,2021.1.4,59.96217585068236,
64,0,64,0,5,147.36805479996838,None,147.36805479996838,None,0.15625,0.4166666666666667,1,0,0,1.989117500022985,target,0.010860680020414293,None,,001,2022_Oct_05_1952,Tutorial_3,2021.1.4,59.96217585068236,
65,0,65,0,10,149.43877689994406,None,149.43877689994406,None,-0.3346354166666667,0.3190104166666667,1,0,0,1.5332597000524402,target,0.007011999958194792,None,,001,2022_Oct_05_1952,Tutorial_3,2021.1.4,59.96217585068236,
66,0,66,0,5,151.01749979995657,None,151.01749979995657,None,0.4361979166666667,-0.06640625,1,0,0,2.139809599961154,target,0.006720060016959906,None,,001,2022_Oct_05_1952,Tutorial_3,2021.1.4,59.96217585068236,
67,0,67,0,10,153.2190289000282,None,153.2190289000282,None,0.18229166666666666,0.00390625,1,0,0,0.999781799968332,target,0.0060290799010545015,None,,001,2022_Oct_05_1952,Tutorial_3,2021.1.4,59.96217585068236,
68,0,68,0,5,154.2565995999612,None,154.2565995999612,None,0.06640625,-0.21223958333333334,1,0,0,1.9566534000914544,target,0.005799859995022416,None,,001,2022_Oct_05_1952,Tutorial_3,2021.1.4,59.96217585068236,
69,0,69,0,10,156.30208880000282,None,156.30208880000282,None,-0.453125,0.40625,1,0,0,3.4227860000682995,target,0.010883720126003027,None,,001,2022_Oct_05_1952,Tutorial_3,2021.1.4,59.96217585068236,
70,0,70,0,10,159.76965869998094,None,159.76965869998094,None,0.21614583333333334,-0.3958333333333333,1,0,0,2.3189508999930695,target,0.0014872599858790636,None,,001,2022_Oct_05_1952,Tutorial_3,2021.1.4,59.96217585068236,
71,0,71,0,5,162.11697410000488,None,162.11697410000488,None,0.46875,0.22786458333333334,1,0,0,2.0088643999770284,target,0.015402660006657243,None,,001,2022_Oct_05_1952,Tutorial_3,2021.1.4,59.96217585068236,
72,0,72,0,10,164.20229039993137,None,164.20229039993137,None,-0.21484375,-0.4375,1,0,0,2.636473700054921,target,0.014328799792565405,None,,001,2022_Oct_05_1952,Tutorial_3,2021.1.4,59.96217585068236,
73,0,73,0,5,166.8725919999415,None,166.8725919999415,None,0.14583333333333334,0.15885416666666666,1,0,0,1.3455524999881163,target,0.01252285996451974,None,,001,2022_Oct_05_1952,Tutorial_3,2021.1.4,59.96217585068236,
74,0,74,0,10,168.2915539999958,None,168.2915539999958,None,-0.4622395833333333,0.16145833333333334,1,0,0,2.3550779999932274,target,0.004970479989424348,None,,001,2022_Oct_05_1952,Tutorial_3,2021.1.4,59.96217585068236,
75,0,75,0,5,170.66516410000622,None,170.66516410000622,None,0.2552083333333333,-0.4283854166666667,1,0,0,1.9942435000557452,target,0.004016939899884164,None,,001,2022_Oct_05_1952,Tutorial_3,2021.1.4,59.96217585068236,
76,0,76,0,10,172.72553860000335,None,172.72553860000335,None,-0.12890625,-0.4661458333333333,1,0,0,1.9798425999470055,target,0.015470399870537221,None,,001,2022_Oct_05_1952,Tutorial_3,2021.1.4,59.96217585068236,
77,0,77,0,5,174.7420583999483,None,174.7420583999483,None,0.2760416666666667,0.328125,1,0,0,2.4659725000383332,target,0.011844060034491122,None,,001,2022_Oct_05_1952,Tutorial_3,2021.1.4,59.96217585068236,
78,0,78,0,5,177.24560100003146,None,177.24560100003146,None,0.27734375,-0.16276041666666666,1,0,0,1.8564429000252858,target,0.012711560004390776,None,,001,2022_Oct_05_1952,Tutorial_3,2021.1.4,59.96217585068236,
79,0,79,0,5,179.14045439998154,None,179.14045439998154,None,0.4934895833333333,0.30078125,1,0,0,1.1109275999478996,target,0.010350859956815839,None,,001,2022_Oct_05_1952,Tutorial_3,2021.1.4,59.96217585068236,
80,0,80,0,10,180.3104856000282,None,180.3104856000282,None,-0.13151041666666666,0.27734375,1,0,0,1.164182599983178,target,0.009925179998390377,None,,001,2022_Oct_05_1952,Tutorial_3,2021.1.4,59.96217585068236,
81,0,81,0,10,181.54126249998808,None,181.54126249998808,None,0.4622395833333333,0.3645833333333333,1,0,0,2.1445928000612184,target,0.006616479950025678,None,,001,2022_Oct_05_1952,Tutorial_3,2021.1.4,59.96217585068236,
82,0,82,0,10,183.7445305000292,None,183.7445305000292,None,0.06901041666666667,0.23697916666666666,1,0,0,1.4917859999695793,target,0.008643879904411733,None,,001,2022_Oct_05_1952,Tutorial_3,2021.1.4,59.96217585068236,
83,0,83,0,5,185.24588509998284,None,185.24588509998284,None,-0.13932291666666666,0.140625,1,0,0,1.3184148001018912,target,0.005036539980210364,None,,001,2022_Oct_05_1952,Tutorial_3,2021.1.4,59.96217585068236,
84,0,84,0,5,186.64573190000374,None,186.64573190000374,None,-0.06510416666666667,0.20182291666666666,1,0,0,2.924601999926381,target,0.006749799940735102,None,,001,2022_Oct_05_1952,Tutorial_3,2021.1.4,59.96217585068236,
85,0,85,0,5,189.62644070002716,None,189.62644070002716,None,0.4166666666666667,0.08984375,1,0,0,1.4618478000629693,target,0.014415880083106458,None,,001,2022_Oct_05_1952,Tutorial_3,2021.1.4,59.96217585068236,
86,0,86,0,5,191.11747019994073,None,191.11747019994073,None,0.3815104166666667,-0.16796875,1,0,0,1.477089500054717,target,0.010307760094292462,None,,001,2022_Oct_05_1952,Tutorial_3,2021.1.4,59.96217585068236,
87,0,87,0,10,192.6817934999708,None,192.6817934999708,None,-0.25,0.05859375,1,0,0,2.739537699962966,target,0.005927579943090677,None,,001,2022_Oct_05_1952,Tutorial_3,2021.1.4,59.96217585068236,
88,0,88,0,5,195.43918650003616,None,195.43918650003616,None,-0.25,0.05859375,1,0,0,0.09990930010098964,,0.010281560011208057,None,,001,2022_Oct_05_1952,Tutorial_3,2021.1.4,59.96217585068236,
89,0,89,0,10,195.57452989998274,None,195.57452989998274,None,0.4661458333333333,-0.046875,1,0,0,6.725527999922633,target,0.01419255998916924,None,,001,2022_Oct_05_1952,Tutorial_3,2021.1.4,59.96217585068236,
90,0,90,0,10,202.363575699972,None,202.363575699972,None,0.12369791666666667,0.016927083333333332,1,0,0,1.4510590999852866,target,0.008403079933486879,None,,001,2022_Oct_05_1952,Tutorial_3,2021.1.4,59.96217585068236,
91,0,91,0,5,203.84782789996825,None,203.84782789996825,None,0.49609375,-0.16927083333333334,1,0,0,1.5827409999910742,target,0.008581060101278126,None,,001,2022_Oct_05_1952,Tutorial_3,2021.1.4,59.96217585068236,
92,0,92,0,5,205.48260440002196,None,205.48260440002196,None,0.18880208333333334,-0.09895833333333333,1,0,0,1.1928533000173047,target,0.0025293598882853985,None,,001,2022_Oct_05_1952,Tutorial_3,2021.1.4,59.96217585068236,
93,0,93,0,5,206.70926939998753,None,206.70926939998753,None,0.22135416666666666,-0.3190104166666667,1,0,0,1.3308545999461785,target,0.0038708599749952555,None,,001,2022_Oct_05_1952,Tutorial_3,2021.1.4,59.96217585068236,
94,0,94,0,10,208.11289919994306,None,208.11289919994306,None,0.4453125,-0.4700520833333333,1,0,0,5.5496882000006735,target,0.015847700065933168,None,,001,2022_Oct_05_1952,Tutorial_3,2021.1.4,59.96217585068236,
95,0,95,0,10,213.7380824999418,None,213.7380824999418,None,-0.4231770833333333,0.4661458333333333,1,0,0,1.499433399992995,target,0.001735780038870871,None,,001,2022_Oct_05_1952,Tutorial_3,2021.1.4,59.96217585068236,
96,0,96,0,5,215.2645593000343,None,215.2645593000343,None,0.4518229166666667,-0.19791666666666666,1,0,0,4.38865880004596,target,0.010295560001395643,None,,001,2022_Oct_05_1952,Tutorial_3,2021.1.4,59.96217585068236,
97,0,97,0,10,219.7408418999985,None,219.7408418999985,None,0.2994791666666667,0.2916666666666667,1,0,0,1.8241379000246525,target,0.0014851000159978867,None,,001,2022_Oct_05_1952,Tutorial_3,2021.1.4,59.96217585068236,
98,0,98,0,10,221.62426750001032,None,221.62426750001032,None,0.055989583333333336,0.05078125,1,0,0,2.446543899946846,target,0.013236099970526993,None,,001,2022_Oct_05_1952,Tutorial_3,2021.1.4,59.96217585068236,
99,0,99,0,5,224.10960309999064,None,224.10960309999064,None,0.08984375,-0.3450520833333333,1,0,0,1.2169231999432668,target,0.010271359933540225,None,,001,2022_Oct_05_1952,Tutorial_3,2021.1.4,59.96217585068236,
100,0,100,0,10,225.3853132999502,None,225.3853132999502,None,-0.014322916666666666,-0.24348958333333334,1,0,0,2.9334488000022247,target,0.008388979942537844,None,,001,2022_Oct_05_1952,Tutorial_3,2021.1.4,59.96217585068236,
101,0,101,0,10,228.37742339994293,None,228.37742339994293,None,-0.34765625,0.15625,1,0,0,2.3665876999730244,target,0.006086879875510931,None,,001,2022_Oct_05_1952,Tutorial_3,2021.1.4,59.96217585068236,
102,0,102,0,5,230.78750249999575,None,230.78750249999575,None,-0.17317708333333334,-0.01171875,1,0,0,1.1643628999590874,target,0.005843259976245463,None,,001,2022_Oct_05_1952,Tutorial_3,2021.1.4,59.96217585068236,
103,0,103,0,10,232.0340981000336,None,232.0340981000336,None,0.1328125,-0.234375,1,0,0,2.2444070000201464,target,0.0028478000313043594,None,,001,2022_Oct_05_1952,Tutorial_3,2021.1.4,59.96217585068236,
104,0,104,0,5,234.30489439994562,None,234.30489439994562,None,-0.010416666666666666,0.13671875,1,0,0,1.4008761000586674,target,0.016210159985348582,None,,001,2022_Oct_05_1952,Tutorial_3,2021.1.4,59.96217585068236,
105,0,105,0,5,235.75848269998096,None,235.75848269998096,None,-0.026041666666666668,-0.052083333333333336,1,0,0,0.9651906000217423,target,0.007805480039678514,None,,001,2022_Oct_05_1952,Tutorial_3,2021.1.4,59.96217585068236,
106,0,106,0,5,236.79331640002783,None,236.79331640002783,None,-0.4453125,0.12890625,1,0,0,2.0536031000083312,target,0.013717600028030574,None,,001,2022_Oct_05_1952,Tutorial_3,2021.1.4,59.96217585068236,
107,0,107,0,10,238.91153509996366,None,238.91153509996366,None,-0.3307291666666667,0.14322916666666666,1,0,0,1.331894800066948,target,0.006321780034340918,None,,001,2022_Oct_05_1952,Tutorial_3,2021.1.4,59.96217585068236,
108,0,108,0,10,240.31564159994014,None,240.31564159994014,None,-0.07552083333333333,0.42578125,1,0,0,1.6158343999413773,target,0.014434899901971221,None,,001,2022_Oct_05_1952,Tutorial_3,2021.1.4,59.96217585068236,
109,0,109,0,5,241.9556278999662,None,241.9556278999662,None,0.21614583333333334,0.421875,1,0,0,1.4929579000454396,target,0.016538960044272244,None,,001,2022_Oct_05_1952,Tutorial_3,2021.1.4,59.96217585068236,
110,0,110,0,10,243.54204630001914,None,243.54204630001914,None,-0.30859375,0.041666666666666664,1,0,0,1.6382965999655426,target,0.008454600116237998,None,,001,2022_Oct_05_1952,Tutorial_3,2021.1.4,59.96217585068236,
111,0,111,0,5,245.2017932999879,None,245.2017932999879,None,0.006510416666666667,-0.3997395833333333,1,0,0,2.0129090999253094,target,0.011764660011976957,None,,001,2022_Oct_05_1952,Tutorial_3,2021.1.4,59.96217585068236,
112,0,112,0,10,247.29280049994122,None,247.29280049994122,None,0.3841145833333333,-0.0234375,1,0,0,2.5423376000253484,target,0.016351699829101562,None,,001,2022_Oct_05_1952,Tutorial_3,2021.1.4,59.96217585068236,
113,0,113,0,5,249.86304329999257,None,249.86304329999257,None,0.27734375,0.3046875,1,0,0,1.7588139999425039,target,0.009589359979145229,None,,001,2022_Oct_05_1952,Tutorial_3,2021.1.4,59.96217585068236,
114,0,114,0,10,251.66587729996536,None,251.66587729996536,None,0.07291666666666667,0.4713541666666667,1,0,0,5.674103999976069,target,0.008939159917645156,None,,001,2022_Oct_05_1952,Tutorial_3,2021.1.4,59.96217585068236,
115,0,115,0,10,257.39884169993456,None,257.39884169993456,None,0.1328125,0.09505208333333333,1,0,0,1.7947466000914574,target,0.006985779968090355,None,,001,2022_Oct_05_1952,Tutorial_3,2021.1.4,59.96217585068236,
116,0,116,0,10,259.25570400001016,None,259.25570400001016,None,0.10807291666666667,0.3059895833333333,1,0,0,1.6442225000355393,target,0.00841188000049442,None,,001,2022_Oct_05_1952,Tutorial_3,2021.1.4,59.96217585068236,
117,0,117,0,10,260.9658563999692,None,260.9658563999692,None,0.17838541666666666,0.4505208333333333,1,0,0,2.4969609000254422,target,0.0025884801289066672,None,,001,2022_Oct_05_1952,Tutorial_3,2021.1.4,59.96217585068236,
118,0,118,0,10,263.5220680999337,None,263.5220680999337,None,-0.032552083333333336,0.041666666666666664,1,0,0,2.7869458999484777,target,0.0064176799496635795,None,,001,2022_Oct_05_1952,Tutorial_3,2021.1.4,59.96217585068236,
119,0,119,0,10,266.3547306000255,None,266.3547306000255,None,-0.2552083333333333,-0.3919270833333333,1,0,0,3.098272200091742,target,0.010831479914486408,None,,001,2022_Oct_05_1952,Tutorial_3,2021.1.4,59.96217585068236,
120,0,120,0,10,269.5287180999294,None,269.5287180999294,None,-0.3697916666666667,0.4661458333333333,1,0,0,2.178700500051491,target,0.009535099961794913,None,,001,2022_Oct_05_1952,Tutorial_3,2021.1.4,59.96217585068236,
121,0,121,0,10,271.77065740001854,None,271.77065740001854,None,-0.3424479166666667,-0.028645833333333332,1,0,0,2.03604949999135,target,0.00828887999523431,None,,001,2022_Oct_05_1952,Tutorial_3,2021.1.4,59.96217585068236,
122,0,122,0,10,273.8313205000013,None,273.8313205000013,None,0.3958333333333333,-0.4036458333333333,1,0,0,2.01587100001052,target,0.015523859998211265,None,,001,2022_Oct_05_1952,Tutorial_3,2021.1.4,59.96217585068236,
123,0,123,0,10,275.9129905999871,None,275.9129905999871,None,-0.24088541666666666,0.16536458333333334,1,0,0,1.8141541999066249,target,0.008995580021291971,None,,001,2022_Oct_05_1952,Tutorial_3,2021.1.4,59.96217585068236,
124,0,124,0,5,277.7408600000199,None,277.7408600000199,None,0.12760416666666666,-0.20703125,1,0,0,2.1606048999819905,target,0.0038665401516482234,None,,001,2022_Oct_05_1952,Tutorial_3,2021.1.4,59.96217585068236,
125,0,125,0,10,279.9701713999966,None,279.9701713999966,None,-0.40625,0.3971354166666667,1,0,0,2.363201400032267,target,0.005623879958875477,None,,001,2022_Oct_05_1952,Tutorial_3,2021.1.4,59.96217585068236,
126,0,126,0,10,282.39718199998606,None,282.39718199998606,None,0.15625,-0.040364583333333336,1,0,0,2.4643836999312043,target,0.003011579974554479,None,,001,2022_Oct_05_1952,Tutorial_3,2021.1.4,59.96217585068236,
127,0,127,0,5,284.88908520003315,None,284.88908520003315,None,0.3385416666666667,0.06640625,1,0,0,1.3674241000553593,target,0.013699559960514307,None,,001,2022_Oct_05_1952,Tutorial_3,2021.1.4,59.96217585068236,
128,0,128,0,5,286.31480329995975,None,286.31480329995975,None,-0.3984375,-0.11979166666666667,1,0,0,1.6510339999804273,target,0.016417980077676475,None,,001,2022_Oct_05_1952,Tutorial_3,2021.1.4,59.96217585068236,
129,0,129,0,5,288.0159449999919,None,288.0159449999919,None,-0.15234375,0.4361979166666667,1,0,0,1.5402033999562263,target,0.006415279931388795,None,,001,2022_Oct_05_1952,Tutorial_3,2021.1.4,59.96217585068236,
130,0,130,0,5,289.5960796000436,None,289.5960796000436,None,-0.07291666666666667,-0.20442708333333334,1,0,0,1.458361699944362,target,0.010710460017435253,None,,001,2022_Oct_05_1952,Tutorial_3,2021.1.4,59.96217585068236,
131,0,131,0,10,291.1310239000013,None,291.1310239000013,None,-0.17578125,-0.3515625,1,0,0,2.808617000002414,target,0.015855800011195242,None,,001,2022_Oct_05_1952,Tutorial_3,2021.1.4,59.96217585068236,
132,0,132,0,10,294.00353039999027,None,294.00353039999027,None,-0.4375,0.35546875,1,0,0,3.1298329998971894,target,0.007117179920896888,None,,001,2022_Oct_05_1952,Tutorial_3,2021.1.4,59.96217585068236,
133,0,133,0,5,297.1683345999336,None,297.1683345999336,None,-0.06640625,-0.23697916666666666,1,0,0,1.7958085000282153,target,0.006780260126106441,None,,001,2022_Oct_05_1952,Tutorial_3,2021.1.4,59.96217585068236,
134,0,134,0,5,298.9980729999952,None,298.9980729999952,None,0.078125,-0.15755208333333334,1,0,0,1.7427906000521034,target,0.011536460020579398,None,,001,2022_Oct_05_1952,Tutorial_3,2021.1.4,59.96217585068236,
135,0,135,0,5,300.7786687000189,None,300.7786687000189,None,-0.19140625,-0.19921875,1,0,0,2.0622720000101253,target,0.01160865998826921,None,,001,2022_Oct_05_1952,Tutorial_3,2021.1.4,59.96217585068236,
136,0,136,0,10,302.90779059997294,None,302.90779059997294,None,0.07291666666666667,-0.4479166666666667,1,0,0,2.237777499947697,target,0.0031134800519794226,None,,001,2022_Oct_05_1952,Tutorial_3,2021.1.4,59.96217585068236,
137,0,137,0,10,305.2072581000393,None,305.2072581000393,None,0.10416666666666667,0.15234375,1,0,0,3.66950010007713,target,0.008614480029791594,None,,001,2022_Oct_05_1952,Tutorial_3,2021.1.4,59.96217585068236,
138,0,138,0,10,308.93580500001553,None,308.93580500001553,None,0.4075520833333333,-0.3151041666666667,1,0,0,1.80249539995566,target,0.007224080036394298,None,,001,2022_Oct_05_1952,Tutorial_3,2021.1.4,59.96217585068236,
139,0,139,0,5,310.7684705000138,None,310.7684705000138,None,-0.040364583333333336,-0.1015625,1,0,0,1.6924996000016108,target,0.010953560005873442,None,,001,2022_Oct_05_1952,Tutorial_3,2021.1.4,59.96217585068236,
140,0,140,0,5,312.5072559999535,None,312.5072559999535,None,0.4361979166666667,-0.1796875,1,0,0,1.945720599964261,target,0.002422860008664429,None,,001,2022_Oct_05_1952,Tutorial_3,2021.1.4,59.96217585068236,
141,0,141,0,5,314.50156360003166,None,314.50156360003166,None,0.2552083333333333,-0.1171875,1,0,0,1.1149043999612331,target,0.016079080058261752,None,,001,2022_Oct_05_1952,Tutorial_3,2021.1.4,59.96217585068236,
142,0,142,0,10,315.67847959999926,None,315.67847959999926,None,-0.4127604166666667,0.33984375,1,0,0,1.8344708000076935,target,0.00753477995749563,None,,001,2022_Oct_05_1952,Tutorial_3,2021.1.4,59.96217585068236,
143,0,143,0,10,317.5470455000177,None,317.5470455000177,None,-0.3359375,-0.4700520833333333,1,0,0,2.5811360999941826,target,0.013218160020187497,None,,001,2022_Oct_05_1952,Tutorial_3,2021.1.4,59.96217585068236,
144,0,144,0,10,320.18398560001515,None,320.18398560001515,None,-0.3697916666666667,-0.46484375,1,0,0,2.0709760000463575,target,0.010962879983708262,None,,001,2022_Oct_05_1952,Tutorial_3,2021.1.4,59.96217585068236,
145,0,145,0,10,322.32452779996675,None,322.32452779996675,None,0.05078125,0.19140625,1,0,0,2.610774200060405,target,0.0030382799450308084,None,,001,2022_Oct_05_1952,Tutorial_3,2021.1.4,59.96217585068236,
146,0,146,0,5,324.9646662999876,None,324.9646662999876,None,-0.234375,-0.1484375,1,0,0,1.4574315999634564,target,0.010097659891471267,None,,001,2022_Oct_05_1952,Tutorial_3,2021.1.4,59.96217585068236,
147,0,147,0,10,326.469793700031,None,326.469793700031,None,0.13020833333333334,0.029947916666666668,1,0,0,1.9293191999895498,target,0.0007861601188778877,None,,001,2022_Oct_05_1952,Tutorial_3,2021.1.4,59.96217585068236,
148,0,148,0,10,328.4640687999781,None,328.4640687999781,None,0.4830729166666667,0.4075520833333333,1,0,0,2.2725500999949872,target,0.004734079935587943,None,,001,2022_Oct_05_1952,Tutorial_3,2021.1.4,59.96217585068236,
149,0,149,0,5,330.76644060004037,None,330.76644060004037,None,-0.11197916666666667,0.40625,1,0,0,1.3942140999715775,target,0.011180859990417957,None,,001,2022_Oct_05_1952,Tutorial_3,2021.1.4,59.96217585068236,
150,0,150,0,5,332.2050120999338,None,332.2050120999338,None,-0.2981770833333333,-0.46484375,1,0,0,1.7866893999744207,target,0.0058401599526405334,None,,001,2022_Oct_05_1952,Tutorial_3,2021.1.4,59.96217585068236,
151,0,151,0,10,334.0600287000416,None,334.0600287000416,None,-0.3138020833333333,-0.3138020833333333,1,0,0,1.3906820999691263,target,0.001971679972484708,None,,001,2022_Oct_05_1952,Tutorial_3,2021.1.4,59.96217585068236,
152,0,152,0,10,335.48981069994625,None,335.48981069994625,None,0.037760416666666664,-0.3841145833333333,1,0,0,1.7212282000109553,target,0.009343160083517432,None,,001,2022_Oct_05_1952,Tutorial_3,2021.1.4,59.96217585068236,
153,0,153,0,10,337.2704509999603,None,337.2704509999603,None,-0.18619791666666666,-0.17838541666666666,1,0,0,3.636765000061132,target,0.00975008006207645,None,,001,2022_Oct_05_1952,Tutorial_3,2021.1.4,59.96217585068236,
154,0,154,0,10,340.9731814999832,None,340.9731814999832,None,0.16015625,0.3489583333333333,1,0,0,2.9293325999751687,target,0.005957379937171936,None,,001,2022_Oct_05_1952,Tutorial_3,2021.1.4,59.96217585068236,
155,0,155,0,10,343.9272960999515,None,343.9272960999515,None,0.037760416666666664,-0.2799479166666667,1,0,0,2.2236108999932185,target,0.015966459992341697,None,,001,2022_Oct_05_1952,Tutorial_3,2021.1.4,59.96217585068236,
156,0,156,0,10,346.1961846000049,None,346.1961846000049,None,0.4440104166666667,0.21875,1,0,0,1.6964314999058843,target,0.008649560040794313,None,,001,2022_Oct_05_1952,Tutorial_3,2021.1.4,59.96217585068236,
157,0,157,0,5,347.90703360002954,None,347.90703360002954,None,-0.21223958333333334,-0.2890625,1,0,0,1.522359799942933,target,0.007366140140220523,None,,001,2022_Oct_05_1952,Tutorial_3,2021.1.4,59.96217585068236,
158,0,158,0,5,349.47689089993946,None,349.47689089993946,None,0.018229166666666668,0.2981770833333333,1,0,0,1.4344719999935478,target,0.00982946006115526,None,,001,2022_Oct_05_1952,Tutorial_3,2021.1.4,59.96217585068236,
159,0,159,0,5,350.9480242000427,None,350.9480242000427,None,-0.4830729166666667,0.3997395833333333,1,0,0,1.922927499981597,target,0.010975660057738423,None,,001,2022_Oct_05_1952,Tutorial_3,2021.1.4,59.96217585068236,
160,0,160,0,5,352.9067581000272,None,352.9067581000272,None,-0.3997395833333333,0.046875,1,0,0,2.379307799972594,target,0.012850459897890687,None,,001,2022_Oct_05_1952,Tutorial_3,2021.1.4,59.96217585068236,
161,0,161,0,5,355.3369715999579,None,355.3369715999579,None,0.17838541666666666,-0.3151041666666667,1,0,0,2.6339406999759376,target,0.0027725599939003587,None,,001,2022_Oct_05_1952,Tutorial_3,2021.1.4,59.96217585068236,
162,0,162,0,5,358.0159006000031,None,358.0159006000031,None,0.08723958333333333,0.4309895833333333,1,0,0,2.109171099960804,target,0.003025159938260913,None,,001,2022_Oct_05_1952,Tutorial_3,2021.1.4,59.96217585068236,
163,0,163,0,5,360.1744520999491,None,360.1744520999491,None,-0.109375,-0.2513020833333333,1,0,0,2.5475960000185296,target,0.01635518006514758,None,,001,2022_Oct_05_1952,Tutorial_3,2021.1.4,59.96217585068236,
164,0,164,0,10,362.7915043999674,None,362.7915043999674,None,0.10416666666666667,0.2877604166666667,1,0,0,1.7364965999731794,target,0.0052930801175534725,None,,001,2022_Oct_05_1952,Tutorial_3,2021.1.4,59.96217585068236,
165,0,165,0,5,364.5517659999896,None,364.5517659999896,None,0.3893229166666667,-0.14713541666666666,1,0,0,3.782511599943973,target,0.012825159938074648,None,,001,2022_Oct_05_1952,Tutorial_3,2021.1.4,59.96217585068236,
166,0,166,0,10,368.39941800001543,None,368.39941800001543,None,-0.1953125,0.05859375,1,0,0,2.2389252999564633,target,0.008332980098202825,None,,001,2022_Oct_05_1952,Tutorial_3,2021.1.4,59.96217585068236,
167,0,167,0,10,370.70673149998765,None,370.70673149998765,None,0.4361979166666667,-0.11458333333333333,1,0,0,2.8209572000196204,target,0.0005536801181733608,None,,001,2022_Oct_05_1952,Tutorial_3,2021.1.4,59.96217585068236,
168,0,168,0,10,373.57886999996845,None,373.57886999996845,None,-0.3697916666666667,-0.4283854166666667,1,0,0,3.746671300032176,target,0.012019180110655725,None,,001,2022_Oct_05_1952,Tutorial_3,2021.1.4,59.96217585068236,
169,0,169,0,10,377.40713469998445,None,377.40713469998445,None,-0.15625,0.11458333333333333,1,0,0,1.519022100022994,target,0.011964019970037043,None,,001,2022_Oct_05_1952,Tutorial_3,2021.1.4,59.96217585068236,
170,0,170,0,5,378.95743760000914,None,378.95743760000914,None,-0.13671875,0.4049479166666667,1,0,0,1.508063800050877,target,0.013783460017293692,None,,001,2022_Oct_05_1952,Tutorial_3,2021.1.4,59.96217585068236,
171,0,171,0,5,380.5141617000336,None,380.5141617000336,None,-0.3958333333333333,0.125,1,0,0,1.528900200035423,target,0.0034045600332319736,None,,001,2022_Oct_05_1952,Tutorial_3,2021.1.4,59.96217585068236,
172,0,172,0,10,382.09678729996085,None,382.09678729996085,None,0.07682291666666667,0.10546875,1,0,0,1.65875859989319,target,0.013133379979990423,None,,001,2022_Oct_05_1952,Tutorial_3,2021.1.4,59.96217585068236,
173,0,173,0,10,383.82773369993083,None,383.82773369993083,None,-0.4505208333333333,0.19270833333333334,1,0,0,1.7462931000627577,target,0.002411880064755678,None,,001,2022_Oct_05_1952,Tutorial_3,2021.1.4,59.96217585068236,
174,0,174,0,10,385.6248971000314,None,385.6248971000314,None,0.04296875,-0.2760416666666667,1,0,0,1.7804647999582812,target,0.01189477986190468,None,,001,2022_Oct_05_1952,Tutorial_3,2021.1.4,59.96217585068236,
175,0,175,0,10,387.4692864000099,None,387.4692864000099,None,-0.109375,0.375,1,0,0,1.812058600015007,target,0.01584879995789379,None,,001,2022_Oct_05_1952,Tutorial_3,2021.1.4,59.96217585068236,
176,0,176,0,10,389.32691639999393,None,389.32691639999393,None,-0.23828125,0.3385416666666667,1,0,0,4.723163400078192,target,0.008363659959286451,None,,001,2022_Oct_05_1952,Tutorial_3,2021.1.4,59.96217585068236,
177,0,177,0,5,394.1040208999766,None,394.1040208999766,None,-0.28515625,0.109375,1,0,0,1.3006952999858186,target,0.007932079955935478,None,,001,2022_Oct_05_1952,Tutorial_3,2021.1.4,59.96217585068236,
178,0,178,0,5,395.43631669995375,None,395.43631669995375,None,-0.0390625,-0.12239583333333333,1,0,0,1.3578654999146238,target,0.01213145989459008,None,,001,2022_Oct_05_1952,Tutorial_3,2021.1.4,59.96217585068236,
179,0,179,0,5,396.82628969999496,None,396.82628969999496,None,0.203125,-0.08333333333333333,1,0,0,1.7464072000002488,target,0.01246915990486741,None,,001,2022_Oct_05_1952,Tutorial_3,2021.1.4,59.96217585068236,
180,0,180,0,10,398.65678720001597,None,398.65678720001597,None,-0.0078125,-0.09244791666666667,1,0,0,1.5724770999513566,target,0.004630699986591935,None,,001,2022_Oct_05_1952,Tutorial_3,2021.1.4,59.96217585068236,
181,0,181,0,10,400.2900773000438,None,400.2900773000438,None,0.2877604166666667,0.041666666666666664,1,0,0,1.8993760999292135,target,0.013872780022211373,None,,001,2022_Oct_05_1952,Tutorial_3,2021.1.4,59.96217585068236,
182,0,182,0,10,402.2623316999525,None,402.2623316999525,None,-0.4036458333333333,-0.20572916666666666,1,0,0,1.4412556999595836,target,0.00014669995289295912,None,,001,2022_Oct_05_1952,Tutorial_3,2021.1.4,59.96217585068236,
183,0,183,0,5,403.74029560002964,None,403.74029560002964,None,0.20703125,0.4401041666666667,1,0,0,1.9536210000514984,target,0.010854160063900054,None,,001,2022_Oct_05_1952,Tutorial_3,2021.1.4,59.96217585068236,
184,0,184,0,10,405.7640937999822,None,405.7640937999822,None,0.4908854166666667,0.09375,1,0,0,1.4902232999447733,target,0.0070745800621807575,None,,001,2022_Oct_05_1952,Tutorial_3,2021.1.4,59.96217585068236,
185,0,185,0,5,407.28202189994045,None,407.28202189994045,None,0.39453125,0.23307291666666666,1,0,0,2.086033499916084,target,0.009110859944485128,None,,001,2022_Oct_05_1952,Tutorial_3,2021.1.4,59.96217585068236,
186,0,186,0,5,409.4072887999937,None,409.4072887999937,None,-0.125,0.12369791666666667,1,0,0,1.3416996999876574,target,0.010670359944924712,None,,001,2022_Oct_05_1952,Tutorial_3,2021.1.4,59.96217585068236,
187,0,187,0,5,410.77713269996457,None,410.77713269996457,None,-0.2747395833333333,-0.03515625,1,0,0,0.9816838999977335,target,0.014496959978714585,None,,001,2022_Oct_05_1952,Tutorial_3,2021.1.4,59.96217585068236,
188,0,188,0,5,411.7962522000307,None,411.7962522000307,None,0.50390625,0.044270833333333336,1,0,0,1.4951026999624446,target,0.009808960021473467,None,,001,2022_Oct_05_1952,Tutorial_3,2021.1.4,59.96217585068236,
189,0,189,0,10,413.35927599994466,None,413.35927599994466,None,-0.3072916666666667,-0.09765625,1,0,0,1.6629919999977574,target,0.005955380038358271,None,,001,2022_Oct_05_1952,Tutorial_3,2021.1.4,59.96217585068236,
190,0,190,0,5,415.0474221999757,None,415.0474221999757,None,-0.4309895833333333,-0.45703125,1,0,0,2.3782210999634117,target,0.003472440061159432,None,,001,2022_Oct_05_1952,Tutorial_3,2021.1.4,59.96217585068236,
191,0,191,0,10,417.4982626000419,None,417.4982626000419,None,0.08072916666666667,0.17057291666666666,1,0,0,1.2606370999710634,target,0.011021399986930192,None,,001,2022_Oct_05_1952,Tutorial_3,2021.1.4,59.96217585068236,
192,0,192,0,5,418.79065790004097,None,418.79065790004097,None,-0.06510416666666667,0.4010416666666667,1,0,0,1.882669800077565,target,0.01420916011556983,None,,001,2022_Oct_05_1952,Tutorial_3,2021.1.4,59.96217585068236,
193,0,193,0,5,420.73749620001763,None,420.73749620001763,None,0.22005208333333334,-0.19140625,1,0,0,1.959557200083509,target,0.0007162799593061209,None,,001,2022_Oct_05_1952,Tutorial_3,2021.1.4,59.96217585068236,
194,0,194,0,10,422.7578680999577,None,422.7578680999577,None,0.23958333333333334,0.5,1,0,0,4.4082470999564976,target,0.011331379995681345,None,,001,2022_Oct_05_1952,Tutorial_3,2021.1.4,59.96217585068236,
195,0,195,0,10,427.2312388999853,None,427.2312388999853,None,0.08854166666666667,0.4479166666666667,1,0,0,2.28441570000723,target,0.007460779859684408,None,,001,2022_Oct_05_1952,Tutorial_3,2021.1.4,59.96217585068236,
196,0,196,0,5,429.5411526999669,None,429.5411526999669,None,-0.09895833333333333,0.0,1,0,0,2.1350103999720886,target,0.01213776005897671,None,,001,2022_Oct_05_1952,Tutorial_3,2021.1.4,59.96217585068236,
197,0,197,0,10,431.74432569998316,None,431.74432569998316,None,0.2682291666666667,0.014322916666666666,1,0,0,2.0692542999750003,target,0.005455979844555259,None,,001,2022_Oct_05_1952,Tutorial_3,2021.1.4,59.96217585068236,
198,0,198,0,10,433.87490169995,None,433.87490169995,None,-0.4505208333333333,0.3515625,1,0,0,2.088941500056535,target,0.005702279973775148,None,,001,2022_Oct_05_1952,Tutorial_3,2021.1.4,59.96217585068236,
199,0,199,0,5,436.0196137999883,None,436.0196137999883,None,0.1640625,0.37890625,1,0,0,1.8031797000439838,target,0.014496400021016598,None,,001,2022_Oct_05_1952,Tutorial_3,2021.1.4,59.96217585068236,
